time,seconds_elapsed,z,y,x
1773343128934315500,0.1873154296875,0.3160000145435333,0.06700000166893005,0
1773343128944067000,0.197067138671875,0.1340000033378601,0.02800000086426735,0
1773343128953819000,0.20681884765625,0.15199999511241913,0.03200000151991844,0
1773343128963569400,0.2165693359375,0.20000000298023224,0.04100000113248825,0
1773343128973319400,0.2263193359375,0.09600000083446503,0.019999999552965164,0
1773343128983069700,0.236069580078125,0.09799999743700027,0.01899999938905239,-0.0010000000474974513
1773343128992821500,0.245821533203125,0.09200000017881393,0.01899999938905239,-0.0010000000474974513
1773343129002573300,0.2555732421875,0.16500000655651093,0.03400000184774399,0
1773343129012323800,0.26532373046875,0.06199999898672104,0.013000000268220901,0
1773343129022075000,0.275074951171875,0.11299999803304672,0.02500000037252903,0
1773343129031824000,0.284823974609375,-0.004000000189989805,0,0
1773343129041573400,0.294573486328125,0.10599999874830246,0.023000000044703484,-0.0010000000474974513
1773343129051323000,0.304322998046875,0.164000004529953,0.035999998450279236,-0.0020000000949949026
1773343129061072000,0.31407177734375,0.0560000017285347,0.012000000104308128,0
1773343129070822100,0.323822265625,0.16899999976158142,0.03500000014901161,-0.0020000000949949026
1773343129080573000,0.333572998046875,0.07599999755620956,0.01600000075995922,0
1773343129090309600,0.3433095703125,1.1890000104904175,-2.9600000381469727,-0.7649999856948853
1773343129100072400,0.353072509765625,1.0420000553131104,-2.9719998836517334,-0.8899999856948853
1773343129109823700,0.36282373046875,1.184000015258789,-2.884999990463257,-0.8330000042915344
1773343129119574000,0.372573974609375,1.2699999809265137,-2.8410000801086426,-0.8600000143051147
1773343129129324500,0.382324462890625,1.3760000467300415,-2.7829999923706055,-0.7319999933242798
1773343129139076000,0.392076171875,1.5859999656677246,-2.947999954223633,-0.6759999990463257
1773343129148828200,0.401828125,1.3890000581741333,-2.8340001106262207,-0.640999972820282
1773343129158580000,0.411580078125,1.3450000286102295,-2.8510000705718994,-0.7839999794960022
1773343129168332500,0.42133251953125,1.305999994277954,-2.921999931335449,-0.859000027179718
1773343129178083800,0.431083740234375,1.215000033378601,-2.875999927520752,-0.7889999747276306
1773343129187836400,0.44083642578125,1.2369999885559082,-2.740999937057495,-0.7129999995231628
1773343129197589500,0.450589599609375,1.2380000352859497,-2.8420000076293945,-0.5149999856948853
1773343129207343600,0.460343505859375,1.2410000562667847,-2.828000068664551,-0.6140000224113464
1773343129216983800,0.46998388671875,1.2480000257492065,-2.8299999237060547,-0.625
1773343129236113700,0.48911376953125,1.190999984741211,-2.6640000343322754,-0.7300000190734863
1773343129245866800,0.49886669921875,1.097000002861023,-2.5409998893737793,-0.6669999957084656
1773343129255620600,0.50862060546875,1.1399999856948853,-2.4509999752044678,-0.6539999842643738
1773343129265374500,0.51837451171875,0.9959999918937683,-2.319999933242798,-0.578000009059906
1773343129275126500,0.52812646484375,0.9660000205039978,-2.259000062942505,-0.5910000205039978
1773343129284878000,0.537878173828125,0.7910000085830688,-2.1559998989105225,-0.527999997138977
1773343129294629600,0.547629638671875,0.7950000166893005,-2.061000108718872,-0.5600000023841858
1773343129304381700,0.557381591796875,0.8309999704360962,-1.9359999895095825,-0.4650000035762787
1773343129314133000,0.567133056640625,0.734000027179718,-1.9149999618530273,-0.37299999594688416
1773343129323884800,0.576884765625,0.6050000190734863,-1.781000018119812,-0.39500001072883606
1773343129333637000,0.58663720703125,0.6420000195503235,-1.7200000286102295,-0.3580000102519989
1773343129343388400,0.596388427734375,0.6320000290870667,-1.5729999542236328,-0.25
1773343129362408000,0.615407958984375,0.5450000166893005,-1.4010000228881836,-0.2280000001192093
1773343129372161800,0.625161865234375,0.4699999988079071,-1.3389999866485596,-0.2849999964237213
1773343129381915400,0.634915283203125,0.41499999165534973,-1.2669999599456787,-0.21199999749660492
1773343129391670300,0.644670166015625,0.4480000138282776,-1.0829999446868896,-0.24400000274181366
1773343129401411300,0.654411376953125,0.4950000047683716,-0.9399999976158142,-0.2199999988079071
1773343129411177200,0.66417724609375,0.44600000977516174,-0.8840000033378601,-0.17599999904632568
1773343129420905500,0.673905517578125,0.4390000104904175,-0.8059999942779541,-0.11299999803304672
1773343129430671400,0.68367138671875,0.492000013589859,-0.671999990940094,-0.22699999809265137
1773343129440437500,0.6934375,0.41999998688697815,-0.6169999837875366,-0.14399999380111694
1773343129450190300,0.7031904296875,0.44999998807907104,-0.4480000138282776,-0.10000000149011612
1773343129459942700,0.712942626953125,0.17800000309944153,-0.3709999918937683,-0.04800000041723251
1773343129469696300,0.7226962890625,0.10700000077486038,-0.296999990940094,-0.006000000052154064
1773343129479449600,0.73244970703125,0.04100000113248825,-0.1770000010728836,-0.0560000017285347
1773343129489203000,0.742202880859375,0.10999999940395355,-0.07800000160932541,-0.04600000008940697
1773343129498957600,0.75195751953125,0.13099999725818634,-0.01600000075995922,0.017999999225139618
1773343129508711200,0.761711181640625,0.18199999630451202,0.06300000101327896,-0.08100000023841858
1773343129518464500,0.771464599609375,0.1509999930858612,0.04899999871850014,0.12800000607967377
1773343129528218400,0.78121826171875,0.1459999978542328,0.08399999886751175,0.02500000037252903
1773343129537973800,0.790973876953125,0.15199999511241913,0.041999999433755875,0.07699999958276749
1773343129547728400,0.800728271484375,0.029999999329447746,0.08399999886751175,-0.00800000037997961
1773343129557481000,0.81048095703125,-0.03999999910593033,0.041999999433755875,-0.07699999958276749
1773343129567234300,0.820234375,0.1720000058412552,0.020999999716877937,-0.03799999877810478
1773343129576987100,0.829987060546875,0.2630000114440918,-0.03400000184774399,0.0010000000474974513
1773343129586740200,0.839740234375,0.38499999046325684,0.10300000011920929,-0.05700000002980232
1773343129596495000,0.8494951171875,0.36500000953674316,0.054999999701976776,0.12099999934434891
1773343129606248400,0.85924853515625,0.2460000067949295,0.07199999690055847,0.035999998450279236
1773343129616002800,0.8690029296875,0.07100000232458115,0.18700000643730164,0.04100000113248825
1773343129625756700,0.878756591796875,-0.0689999982714653,0.11599999666213989,0.01899999938905239
1773343129635510300,0.88851025390625,-0.06499999761581421,0.0860000029206276,0.05700000002980232
1773343129645264000,0.898263916015625,-0.09300000220537186,0.10100000351667404,-0.052000001072883606
1773343129655017000,0.908016845703125,-0.03099999949336052,0.050999999046325684,0.07400000095367432
1773343129664770600,0.9177705078125,-0.023000000044703484,0.12099999934434891,0.02800000086426735
1773343129674523600,0.927523681640625,0.18199999630451202,0.08799999952316284,0.020999999716877937
1773343129693542100,0.946542236328125,0.13500000536441803,0.05900000035762787,0.1889999955892563
1773343129703295700,0.956295654296875,0.11100000143051147,0.11500000208616257,0.11800000071525574
1773343129713048300,0.96604833984375,-0.003000000026077032,0.10899999737739563,0.09200000017881393
1773343129722804500,0.975804443359375,0.19200000166893005,0.12700000405311584,0.14100000262260437
1773343129732555000,0.985554931640625,0.23899999260902405,0.02500000037252903,0.16699999570846558
1773343129742307000,0.99530712890625,0.3230000138282776,0.125,0.12800000607967377
1773343129752060200,1.00506005859375,0.3400000035762787,0.03200000151991844,0.06800000369548798
1773343129761812200,1.014812255859375,0.24300000071525574,0.06199999898672104,0.07800000160932541
1773343129771565300,1.0245654296875,0.050999999046325684,0.0820000022649765,0.10300000011920929
1773343129781319400,1.0343193359375,-0.19900000095367432,0.09300000220537186,0.06499999761581421
1773343129791071000,1.044071044921875,-0.27300000190734863,0.21199999749660492,-0.008999999612569809
1773343129800823600,1.053823486328125,-0.3490000069141388,0.12800000607967377,0.07999999821186066
1773343129810550300,1.06355029296875,-0.2939999997615814,0.33000001311302185,0.2029999941587448
1773343129820315400,1.0733154296875,-0.08900000154972076,0.35100001096725464,0.3190000057220459
1773343129830079700,1.083079833984375,0.07999999821186066,0.17800000309944153,0.33899998664855957
1773343129839832000,1.09283203125,0.10700000077486038,0.1120000034570694,0.1899999976158142
1773343129849587000,1.1025869140625,0.14900000393390656,0.06599999964237213,0.14300000667572021
1773343129859340000,1.112340087890625,0.06300000101327896,-0.004000000189989805,0.04899999871850014
1773343129869094000,1.122093994140625,0.1979999989271164,0.050999999046325684,0.10100000351667404
1773343129878848000,1.131847900390625,0.1889999955892563,0.11299999803304672,0.15600000321865082
1773343129888601300,1.141601318359375,0.11599999666213989,0.10100000351667404,0.07800000160932541
1773343129898355700,1.151355712890625,0.14100000262260437,0.10400000214576721,0.1599999964237213
1773343129908109000,1.161109130859375,0.17800000309944153,0.04100000113248825,0.1720000058412552
1773343129917862100,1.170862060546875,0.21699999272823334,0,0.19099999964237213
1773343129927615200,1.180615234375,0.22100000083446503,0.012000000104308128,0.03500000014901161
1773343129937371400,1.190371337890625,0.1770000010728836,0.05700000002980232,0.03400000184774399
1773343129947127300,1.200127197265625,0.23899999260902405,0.00800000037997961,-0.0010000000474974513
1773343129956882200,1.209882080078125,0.1860000044107437,0.013000000268220901,0.07100000232458115
1773343129966637300,1.21963720703125,0.32199999690055847,0.054999999701976776,0.09099999815225601
1773343129976392200,1.22939208984375,0.43299999833106995,0.05999999865889549,0.22200000286102295
1773343129986148000,1.239148193359375,0.38199999928474426,0.07500000298023224,0.1599999964237213
1773343129995902700,1.24890283203125,0.3310000002384186,0.12399999797344208,0.13699999451637268
1773343130005658000,1.258658203125,0.11699999868869781,0.11299999803304672,0.06599999964237213
1773343130015412500,1.26841259765625,0.04100000113248825,0.13500000536441803,-0.04100000113248825
1773343130025166800,1.278166748046875,0.10400000214576721,0.0729999989271164,-0.08900000154972076
1773343130034921500,1.28792138671875,0.23000000417232513,-0.032999999821186066,0.057999998331069946
1773343130044671200,1.297671142578125,0.2840000092983246,0.03700000047683716,-0.07000000029802322
1773343130054422300,1.30742236328125,0.5009999871253967,-0.03200000151991844,-0.16599999368190765
1773343130064175000,1.317175048828125,0.26100000739097595,-0.12800000607967377,-0.08100000023841858
1773343130073928400,1.326928466796875,0.20399999618530273,-0.05299999937415123,-0.004999999888241291
1773343130083681300,1.336681396484375,0.1679999977350235,0.08699999749660492,0.0010000000474974513
1773343130093433300,1.346433349609375,0.15600000321865082,0.16500000655651093,0.09099999815225601
1773343130103187700,1.356187744140625,0.21899999678134918,0.19699999690055847,0.2590000033378601
1773343130112941000,1.365941162109375,0.31200000643730164,0.24400000274181366,0.10899999737739563
1773343130122694400,1.3756943359375,0.3160000145435333,0.25600001215934753,0.22200000286102295
1773343130132447000,1.385447021484375,0.47699999809265137,0.20600000023841858,0.14100000262260437
1773343130142199800,1.39519970703125,0.6359999775886536,0.2160000056028366,0.08900000154972076
1773343130161705500,1.41470556640625,0.8090000152587891,-0.03700000047683716,-0.3100000023841858
1773343130171459300,1.424459228515625,0.7429999709129333,0,-0.45500001311302185
1773343130181213400,1.43421337890625,0.546999990940094,0.09300000220537186,-0.5820000171661377
1773343130190966000,1.443966064453125,0.39800000190734863,0.1720000058412552,-0.3889999985694885
1773343130200720000,1.453719970703125,0.003000000026077032,0.25099998712539673,-0.13699999451637268
1773343130210473200,1.46347314453125,-0.11699999868869781,0.4449999928474426,0.1379999965429306
1773343130220442400,1.4734423828125,-0.03799999877810478,0.6639999747276306,0.515999972820282
1773343130229980200,1.482980224609375,0.06800000369548798,0.7749999761581421,0.7039999961853027
1773343130239733200,1.492733154296875,0.07500000298023224,0.7099999785423279,0.5199999809265137
1773343130249485600,1.502485595703125,0.03400000184774399,-1.3350000381469727,-1.1139999628067017
1773343130259236000,1.512236083984375,-0.9589999914169312,-2.059999942779541,-1.9989999532699585
1773343130268989200,1.5219892578125,-0.04399999976158142,-0.3199999928474426,-2.0810000896453857
1773343130278604800,1.531604736328125,0.3799999952316284,0.5879999995231628,-3.0230000019073486
1773343130297759700,1.550759765625,1.2289999723434448,0.26600000262260437,-0.7350000143051147
1773343130307512600,1.5605126953125,1.0759999752044678,-0.3880000114440918,0.1940000057220459
1773343130317265000,1.570264892578125,0.6589999794960022,-0.5249999761581421,0.824999988079071
1773343130327017500,1.580017578125,0.08699999749660492,-0.2930000126361847,0.8090000152587891
1773343130336770300,1.589770263671875,-0.2680000066757202,0.20499999821186066,0.32899999618530273
1773343130346522400,1.5995224609375,-0.5720000267028809,0.3919999897480011,-0.19099999964237213
1773343130356274700,1.609274658203125,-0.9559999704360962,0.5109999775886536,-0.46399998664855957
1773343130366027000,1.619027099609375,-1.0829999446868896,0.6380000114440918,-0.6869999766349792
1773343130375779800,1.62877978515625,-1.1069999933242798,0.49300000071525574,-0.7269999980926514
1773343130385535000,1.638534912109375,-0.8209999799728394,0.5180000066757202,-0.6150000095367432
1773343130395289300,1.648289306640625,-0.18199999630451202,0.43299999833106995,-0.703000009059906
1773343130405044500,1.65804443359375,0.10999999940395355,0.44600000977516174,-0.5070000290870667
1773343130414797600,1.667797607421875,0.25600001215934753,0.37299999594688416,-0.5139999985694885
1773343130424551200,1.67755126953125,0.6620000004768372,0.296999990940094,-0.9610000252723694
1773343130434305300,1.68730517578125,1.3170000314712524,0.38199999928474426,-1.0679999589920044
1773343130444058400,1.697058349609375,1.121000051498413,0.5090000033378601,-0.9369999766349792
1773343130453812700,1.706812744140625,1.2380000352859497,0.5759999752044678,-1.159000039100647
1773343130463566800,1.71656689453125,1.0959999561309814,0.6840000152587891,-1.6629999876022339
1773343130473320700,1.72632080078125,0.9490000009536743,0.9179999828338623,-1.7170000076293945
1773343130483074300,1.73607421875,0.5640000104904175,1.0399999618530273,-1.7380000352859497
1773343130492828200,1.745828125,0.1509999930858612,1.125,-1.7769999504089355
1773343130502581800,1.755581787109375,-0.1550000011920929,0.9990000128746033,-1.5640000104904175
1773343130512336000,1.7653359375,-0.753000020980835,0.8989999890327454,-1.4759999513626099
1773343130522090800,1.7750908203125,-0.9810000061988831,0.7870000004768372,-1.1579999923706055
1773343130531844600,1.7848447265625,-1.2799999713897705,0.5519999861717224,-1.184000015258789
1773343130541599500,1.794599609375,-1.2970000505447388,0.39899998903274536,-1.1820000410079956
1773343130551353600,1.804353515625,-1.1100000143051147,0.16300000250339508,-1.2619999647140503
1773343130561107200,1.814107177734375,-1.0850000381469727,-0.19900000095367432,-1.437000036239624
1773343130570861000,1.823861083984375,-0.5519999861717224,-0.3230000138282776,-1.4320000410079956
1773343130580614100,1.8336142578125,-0.5360000133514404,-0.5400000214576721,-1.5499999523162842
1773343130590368500,1.843368408203125,-0.4359999895095825,-0.6470000147819519,-1.6959999799728394
1773343130600122000,1.8531220703125,-0.5189999938011169,-0.6179999709129333,-1.6410000324249268
1773343130609876500,1.86287646484375,-0.5870000123977661,-0.5040000081062317,-1.5230000019073486
1773343130628898800,1.88189892578125,-0.33399999141693115,-0.29600000381469727,-0.8149999976158142
1773343130638653200,1.891653076171875,0.010999999940395355,-0.33000001311302185,-0.5640000104904175
1773343130648407000,1.901406982421875,0.328000009059906,-0.47600001096725464,-0.12300000339746475
1773343130658161000,1.911160888671875,0.7049999833106995,-0.6019999980926514,0.3179999887943268
1773343130667915800,1.920915771484375,0.9829999804496765,-0.5540000200271606,0.35600000619888306
1773343130677668900,1.9306689453125,1.2089999914169312,-0.6420000195503235,0.5509999990463257
1773343130687423200,1.94042333984375,0.9330000281333923,-0.7170000076293945,0.5820000171661377
1773343130697176000,1.950176025390625,0.6610000133514404,-0.7799999713897705,0.6579999923706055
1773343130706929400,1.959929443359375,0.1899999976158142,-0.7879999876022339,0.5109999775886536
1773343130716681200,1.96968115234375,0.017000000923871994,-0.8019999861717224,0.41600000858306885
1773343130726434300,1.979434326171875,-0.0989999994635582,-0.6439999938011169,0.36000001430511475
1773343130736187600,1.989187744140625,-0.057999998331069946,-0.578000009059906,0.5690000057220459
1773343130745939500,1.998939453125,0.1469999998807907,-0.367000013589859,1.2029999494552612
1773343130755691800,2.00869189453125,0.4580000042915344,-0.23899999260902405,1.7730000019073486
1773343130765443600,2.018443603515625,0.628000020980835,-0.0860000029206276,2.3399999141693115
1773343130775196400,2.028196533203125,0.6940000057220459,0.1340000033378601,2.765000104904175
1773343130784948200,2.0379482421875,0.5040000081062317,0.2809999883174896,3.1510000228881836
1773343130794699800,2.04769970703125,0.6660000085830688,0.41100001335144043,3.2269999980926514
1773343130804452900,2.057452880859375,0.621999979019165,0.593999981880188,3.250999927520752
1773343130814205200,2.067205078125,0.46799999475479126,0.5929999947547913,3.058000087738037
1773343130823958500,2.07695849609375,0.20499999821186066,0.5759999752044678,3.0969998836517334
1773343130842976000,2.09597607421875,-0.0430000014603138,0.6439999938011169,2.621000051498413
1773343130852728000,2.10572802734375,0.014000000432133675,0.8429999947547913,2.4579999446868896
1773343130862479400,2.115479248046875,0.06199999898672104,0.7409999966621399,2.365999937057495
1773343130872231000,2.12523095703125,0.13899999856948853,0.8429999947547913,2.4800000190734863
1773343130881982500,2.134982421875,0.04600000008940697,0.906000018119812,2.691999912261963
1773343130891735600,2.144735595703125,0.2840000092983246,1.069000005722046,2.805999994277954
1773343130901488400,2.15448828125,0.03700000047683716,0.9769999980926514,2.75
1773343130911241200,2.1642412109375,-0.24500000476837158,1.0479999780654907,2.5420000553131104
1773343130920994300,2.173994384765625,-0.18400000035762787,1.0390000343322754,2.115999937057495
1773343130930747100,2.1837470703125,-0.0689999982714653,1.0369999408721924,1.7610000371932983
1773343130940500200,2.193500244140625,-0.020999999716877937,1.031999945640564,1.7239999771118164
1773343130950252800,2.203252685546875,-0.04399999976158142,0.9769999980926514,1.7230000495910645
1773343130960006100,2.213006103515625,0.13300000131130219,1.0479999780654907,1.7910000085830688
1773343130969759000,2.222759033203125,0.375,0.9629999995231628,1.75600004196167
1773343130979511800,2.23251171875,0.5289999842643738,0.9340000152587891,1.5729999542236328
1773343130989265000,2.242264892578125,0.4970000088214874,0.9100000262260437,1.3969999551773071
1773343130999016400,2.252016357421875,0.18700000643730164,0.8009999990463257,1.2890000343322754
1773343131008769300,2.261769287109375,-0.25600001215934753,0.7799999713897705,1.0889999866485596
1773343131018522600,2.271522705078125,-0.4440000057220459,0.9340000152587891,0.7749999761581421
1773343131037539600,2.29053955078125,-0.7009999752044678,0.9210000038146973,0.453000009059906
1773343131047291400,2.30029150390625,-0.7160000205039978,0.7649999856948853,0.1379999965429306
1773343131057044000,2.3100439453125,-0.8809999823570251,0.33899998664855957,-0.2529999911785126
1773343131066796000,2.319796142578125,-0.27799999713897705,-0.5630000233650208,-1.4019999504089355
1773343131076541700,2.329541748046875,0.11400000005960464,0.3009999990463257,-0.9929999709129333
1773343131095570000,2.34856982421875,0.0729999989271164,0.6510000228881836,-0.46000000834465027
1773343131105323800,2.35832373046875,-0.3190000057220459,0.6840000152587891,0.7139999866485596
1773343131115076900,2.368076904296875,-0.22300000488758087,0.9240000247955322,1.0080000162124634
1773343131124829700,2.37782958984375,-0.5099999904632568,0.7749999761581421,0.4020000100135803
1773343131134583600,2.38758349609375,-1.0329999923706055,0.6729999780654907,0.039000000804662704
1773343131144335400,2.39733544921875,-1.1579999923706055,0.9639999866485596,0.22200000286102295
1773343131154088700,2.407088623046875,-0.8600000143051147,0.9739999771118164,0.5429999828338623
1773343131163840300,2.41684033203125,-0.6940000057220459,0.9629999995231628,0.6209999918937683
1773343131173592600,2.426592529296875,-0.492000013589859,0.6629999876022339,0.6019999980926514
1773343131183343900,2.43634375,-0.40700000524520874,0.37400001287460327,0.3610000014305115
1773343131193095700,2.446095703125,-0.11999999731779099,0.33000001311302185,-0.03500000014901161
1773343131202847200,2.45584716796875,0.14800000190734863,0.04699999839067459,-0.2630000114440918
1773343131212598800,2.465598876953125,-0.007000000216066837,-0.24400000274181366,-0.3529999852180481
1773343131222351600,2.4753515625,-0.10100000351667404,-0.33799999952316284,-0.37599998712539673
1773343131232104200,2.485104248046875,-0.1459999978542328,-0.39800000190734863,-0.3569999933242798
1773343131241857800,2.49485791015625,-0.164000004529953,-0.875,-0.5820000171661377
1773343131251610000,2.504610107421875,0.2750000059604645,-1.2410000562667847,-1.2230000495910645
1773343131261362200,2.514362060546875,0.800000011920929,-1.0529999732971191,-1.2699999809265137
1773343131271113200,2.52411328125,1.1239999532699585,-0.5770000219345093,-0.7229999899864197
1773343131280863200,2.53386328125,1.1549999713897705,-0.16099999845027924,-0.15399999916553497
1773343131290615800,2.54361572265625,0.8479999899864197,-0.02500000037252903,0.19200000166893005
1773343131300368600,2.55336865234375,0.6859999895095825,0.10199999809265137,0.5720000267028809
1773343131310122200,2.563122314453125,0.6669999957084656,0.25600001215934753,0.906000018119812
1773343131319875300,2.572875244140625,0.4819999933242798,0.2669999897480011,1.1030000448226929
1773343131329628200,2.582628173828125,0.375,0.47200000286102295,1.2999999523162842
1773343131339382800,2.5923828125,0.16500000655651093,0.5199999809265137,1.246999979019165
1773343131349137000,2.602136962890625,0.03799999877810478,0.6899999976158142,0.9580000042915344
1773343131358890500,2.611890380859375,-0.13300000131130219,0.8420000076293945,0.7710000276565552
1773343131368643000,2.62164306640625,-0.3610000014305115,1.0260000228881836,0.6940000057220459
1773343131378395400,2.6313955078125,-0.5870000123977661,0.9070000052452087,0.8190000057220459
1773343131388149200,2.641149169921875,-0.3569999933242798,0.9010000228881836,0.7649999856948853
1773343131397901800,2.65090185546875,-0.21699999272823334,0.8669999837875366,0.6039999723434448
1773343131407656000,2.660656005859375,-0.10899999737739563,0.5040000081062317,0.3089999854564667
1773343131417408000,2.670407958984375,-0.0010000000474974513,0.23899999260902405,0.29499998688697815
1773343131427161900,2.680161865234375,0.17100000381469727,-0.0729999989271164,0.30300000309944153
1773343131436916000,2.689916015625,0.3499999940395355,-0.28600001335144043,0.28299999237060547
1773343131446670000,2.699670166015625,0.6470000147819519,-0.30300000309944153,0.07000000029802322
1773343131456426000,2.709426025390625,0.6269999742507935,-0.3190000057220459,-0.35199999809265137
1773343131466179800,2.719179931640625,0.5239999890327454,-0.2150000035762787,-0.718999981880188
1773343131475934000,2.728933837890625,0.3019999861717224,0.11800000071525574,-0.6340000033378601
1773343131485687300,2.738687255859375,0.25999999046325684,0.42500001192092896,-0.5860000252723694
1773343131495440600,2.748440673828125,0.17399999499320984,0.5529999732971191,-0.3059999942779541
1773343131505194000,2.758194091796875,-0.26899999380111694,0.7129999995231628,-0.12300000339746475
1773343131514946600,2.767946533203125,-0.6000000238418579,0.8960000276565552,-0.029999999329447746
1773343131524700200,2.7777001953125,-0.8059999942779541,0.9290000200271606,-0.14000000059604645
1773343131534452200,2.7874521484375,-0.9789999723434448,0.8759999871253967,-0.640999972820282
1773343131544223200,2.79722314453125,-0.9779999852180481,0.8980000019073486,-1.00600004196167
1773343131553957600,2.80695751953125,-0.5899999737739563,0.8849999904632568,-1.2949999570846558
1773343131563710500,2.81671044921875,-0.11100000143051147,0.9990000128746033,-1.6380000114440918
1773343131573462500,2.826462646484375,0.3479999899864197,1.1130000352859497,-1.7130000591278076
1773343131583214000,2.836214111328125,0.5669999718666077,1.281999945640564,-1.6160000562667847
1773343131592967400,2.845967529296875,0.7260000109672546,1.4830000400543213,-1.25
1773343131602720500,2.855720458984375,0.41499999165534973,1.434999942779541,-0.8339999914169312
1773343131612473900,2.865473876953125,0.3529999852180481,1.5549999475479126,-0.39800000190734863
1773343131622227200,2.875227294921875,0.6700000166893005,1.61899995803833,-0.5139999985694885
1773343131631980000,2.88497998046875,1.1050000190734863,1.6069999933242798,-0.5049999952316284
1773343131641733000,2.894733154296875,1.3589999675750732,1.4839999675750732,-0.8220000267028809
1773343131651484000,2.90448388671875,1.184000015258789,1.225000023841858,-1.284999966621399
1773343131661235500,2.9142353515625,1.1430000066757202,0.8429999947547913,-1.6749999523162842
1773343131670986500,2.923986572265625,0.7630000114440918,0.4749999940395355,-2.013000011444092
1773343131680738000,2.933738037109375,0.6869999766349792,0.10599999874830246,-2.052000045776367
1773343131690490600,2.94349072265625,0.7480000257492065,-0.23199999332427979,-1.944000005722046
1773343131700230000,2.95322998046875,1.156999945640564,-0.3160000145435333,-1.9630000591278076
1773343131709994200,2.962994140625,1.6890000104904175,-0.4339999854564667,-1.8849999904632568
1773343131719720200,2.97272021484375,2.0460000038146973,-0.49799999594688416,-1.7369999885559082
1773343131729496000,2.98249609375,2.2799999713897705,-0.6740000247955322,-1.5759999752044678
1773343131739245800,2.992245849609375,2.2839999198913574,-0.7039999961853027,-1.4010000228881836
1773343131748996000,3.00199609375,2.2249999046325684,-0.8320000171661377,-0.9490000009536743
1773343131758612000,3.011612060546875,1.8200000524520874,-0.7889999747276306,-0.9380000233650208
1773343131777764900,3.030764892578125,0.968999981880188,-0.6259999871253967,-1.4459999799728394
1773343131787517400,3.040517333984375,0.8159999847412109,-0.6759999990463257,-1.590999960899353
1773343131797270000,3.05027001953125,1.0069999694824219,-0.7089999914169312,-1.1710000038146973
1773343131807021800,3.060021728515625,1.340999960899353,-0.7200000286102295,-0.9340000152587891
1773343131816774400,3.0697744140625,1.590999960899353,-0.6460000276565552,-0.6050000190734863
1773343131826526500,3.0795263671875,1.684999942779541,-0.5870000123977661,-0.5910000205039978
1773343131836278000,3.089278076171875,1.7330000400543213,-0.6460000276565552,-0.8880000114440918
1773343131846030000,3.099030029296875,1.6690000295639038,-0.6359999775886536,-1.1380000114440918
1773343131855781600,3.10878173828125,1.6169999837875366,-0.902999997138977,-1.3700000047683716
1773343131865533200,3.118533203125,1.5169999599456787,-1.1460000276565552,-1.4950000047683716
1773343131875286000,3.1282861328125,1.475000023841858,-1.3029999732971191,-1.6710000038146973
1773343131885036800,3.138036865234375,1.4989999532699585,-1.5299999713897705,-1.5169999599456787
1773343131894789400,3.147789306640625,1.5180000066757202,-1.5759999752044678,-1.375
1773343131904540700,3.157540771484375,1.5549999475479126,-1.6230000257492065,-1.1929999589920044
1773343131914292000,3.1672919921875,1.8899999856948853,-1.5770000219345093,-1.024999976158142
1773343131924044000,3.1770439453125,2.2309999465942383,-1.4210000038146973,-0.9100000262260437
1773343131933794800,3.186794921875,2.4600000381469727,-1.3109999895095825,-1.0920000076293945
1773343131943545300,3.19654541015625,2.369999885559082,-1.3320000171661377,-1.3070000410079956
1773343131953294800,3.206294921875,2.2109999656677246,-1.3860000371932983,-1.7719999551773071
1773343131963047000,3.216046875,1.9620000123977661,-1.5429999828338623,-2.124000072479248
1773343131972797700,3.225797607421875,1.6519999504089355,-1.5950000286102295,-2.421999931335449
1773343131982549000,3.235549072265625,1.5390000343322754,-1.7009999752044678,-2.2739999294281006
1773343131992301800,3.2453017578125,1.215999960899353,-1.815999984741211,-2.2139999866485596
1773343132002053400,3.255053466796875,0.8140000104904175,-1.61899995803833,-1.7359999418258667
1773343132021556700,3.274556640625,-0.40799999237060547,-0.7639999985694885,-1.5199999809265137
1773343132031309000,3.28430908203125,-1.0670000314712524,-0.5519999861717224,-1.4600000381469727
1773343132041061400,3.294061279296875,-1.8450000286102295,-0.4699999988079071,-1.2899999618530273
1773343132050813700,3.303813720703125,-2.361999988555908,-0.22699999809265137,-1.0069999694824219
1773343132060566000,3.31356591796875,-2.365999937057495,-0.023000000044703484,-0.8939999938011169
1773343132070317300,3.3233173828125,-2.256999969482422,0.10999999940395355,-1.1519999504089355
1773343132080069600,3.333069580078125,-1.9320000410079956,0.003000000026077032,-1.0190000534057617
1773343132089821000,3.342821044921875,-1.7170000076293945,-0.07599999755620956,-1.1440000534057617
1773343132099573800,3.35257373046875,-1.5429999828338623,-0.38499999046325684,-1.4179999828338623
1773343132109325300,3.3623251953125,-1.531000018119812,-0.5329999923706055,-1.4529999494552612
1773343132119077600,3.37207763671875,-1.3980000019073486,-0.5070000290870667,-1.7089999914169312
1773343132128830500,3.38183056640625,-1.2669999599456787,-0.5600000023841858,-1.7660000324249268
1773343132138581800,3.391581787109375,-0.9909999966621399,-0.6190000176429749,-1.50600004196167
1773343132148332500,3.40133251953125,-0.7459999918937683,-0.800000011920929,-1.6080000400543213
1773343132158083600,3.41108349609375,-0.49000000953674316,-0.890999972820282,-1.4190000295639038
1773343132167833600,3.42083349609375,-0.3070000112056732,-0.9789999723434448,-1.1779999732971191
1773343132177585000,3.4305849609375,0.10999999940395355,-1.1660000085830688,-0.7269999980926514
1773343132187335000,3.4403349609375,0.6439999938011169,-1.1080000400543213,-0.3310000002384186
1773343132197085400,3.45008544921875,1.1200000047683716,-1.059999942779541,-0.09000000357627869
1773343132206837500,3.45983740234375,1.2740000486373901,-1.2269999980926514,-0.2329999953508377
1773343132216589800,3.46958984375,1.1330000162124634,-1.2230000495910645,-0.33399999141693115
1773343132226342000,3.479341796875,0.7450000047683716,-1.3320000171661377,-0.3499999940395355
1773343132236094000,3.489093994140625,0.19900000095367432,-1.128999948501587,-0.44200000166893005
1773343132245846500,3.498846435546875,-0.4779999852180481,-0.859000027179718,-0.4970000088214874
1773343132255598800,3.508598876953125,-1.1230000257492065,-0.6320000290870667,-0.4950000047683716
1773343132265350100,3.51835009765625,-1.5789999961853027,-0.4490000009536743,-0.28600001335144043
1773343132275101200,3.52810107421875,-1.9989999532699585,-0.20499999821186066,0.1770000010728836
1773343132284852500,3.5378525390625,-2.2219998836517334,0.07800000160932541,0.5730000138282776
1773343132294604300,3.547604248046875,-2.311000108718872,0.453000009059906,0.7360000014305115
1773343132304356900,3.55735693359375,-2.2249999046325684,0.652999997138977,1.0089999437332153
1773343132314110000,3.56710986328125,-2.052999973297119,0.8410000205039978,1.184000015258789
1773343132323862500,3.576862548828125,-1.965000033378601,0.5600000023841858,1.3450000286102295
1773343132333614000,3.586614013671875,-1.4800000190734863,0.41200000047683716,1.3079999685287476
1773343132343365000,3.596365234375,-1.0149999856948853,0.13899999856948853,1.1519999504089355
1773343132353117000,3.606116943359375,-0.5830000042915344,0.12300000339746475,1.2389999628067017
1773343132362868700,3.61586865234375,-0.17100000381469727,0.007000000216066837,1.5850000381469727
1773343132372620000,3.6256201171875,0.0010000000474974513,0.11500000208616257,1.7309999465942383
1773343132382371300,3.635371337890625,-0.0430000014603138,-0.050999999046325684,1.7690000534057617
1773343132401386200,3.65438623046875,-0.6489999890327454,-0.052000001072883606,2.0510001182556152
1773343132411137300,3.66413720703125,-0.6779999732971191,-0.10000000149011612,2.0490000247955322
1773343132420887600,3.673887451171875,-0.5320000052452087,-0.29899999499320984,1.7669999599456787
1773343132430639600,3.6836396484375,-0.31299999356269836,-0.5149999856948853,1.6920000314712524
1773343132440390700,3.693390625,0,-0.6850000023841858,1.6629999876022339
1773343132450141000,3.703140869140625,0.08299999684095383,-0.9879999756813049,1.5180000066757202
1773343132459892000,3.71289208984375,0.23600000143051147,-1.0779999494552612,1.475000023841858
1773343132478909200,3.7319091796875,0.4490000009536743,-1.0850000381469727,1.715000033378601
1773343132488660200,3.74166015625,0.335999995470047,-0.9990000128746033,2.236999988555908
1773343132498411800,3.751411865234375,0.3619999885559082,-0.7649999856948853,2.384000062942505
1773343132508163300,3.761163330078125,0.3019999861717224,-0.47600001096725464,2.8369998931884766
1773343132517915400,3.770915283203125,0.289000004529953,-0.32100000977516174,3.046999931335449
1773343132527667500,3.78066748046875,0.1469999998807907,-0.34700000286102295,3.118000030517578
1773343132537417500,3.79041748046875,0.13099999725818634,-0.1860000044107437,3.0920000076293945
1773343132547169300,3.800169189453125,0.3070000112056732,-0.2199999988079071,3.065999984741211
1773343132556919800,3.809919921875,0.2630000114440918,-0.38499999046325684,2.8550000190734863
1773343132566670600,3.819670654296875,0.3659999966621399,-0.453000009059906,2.681999921798706
1773343132576421600,3.829421630859375,0.2160000056028366,-0.5889999866485596,2.4619998931884766
1773343132586172700,3.839172607421875,-0.050999999046325684,-0.6880000233650208,2.259999990463257
1773343132595925500,3.848925537109375,-0.2800000011920929,-0.49399998784065247,2.0869998931884766
1773343132605676800,3.8586767578125,-0.4429999887943268,-0.31200000643730164,2.01200008392334
1773343132615429000,3.86842919921875,-0.5550000071525574,-0.20499999821186066,1.9700000286102295
1773343132625180700,3.8781806640625,-0.6940000057220459,0.2150000035762787,2.0299999713897705
1773343132634933200,3.887933349609375,-0.5709999799728394,0.3610000014305115,2.0980000495910645
1773343132644685000,3.89768505859375,-0.3779999911785126,0.5080000162124634,2.069999933242798
1773343132654437600,3.907437744140625,-0.04600000008940697,0.48399999737739563,2.3910000324249268
1773343132664191200,3.917191162109375,-0.039000000804662704,0.4819999933242798,2.371000051498413
1773343132673943000,3.926943115234375,-0.09700000286102295,0.40799999237060547,2.4809999465942383
1773343132692960800,3.945960693359375,-0.8240000009536743,0.6380000114440918,1.715999960899353
1773343132702712300,3.95571240234375,-1.184999942779541,0.843999981880188,1.055999994277954
1773343132712464600,3.965464599609375,-1.4930000305175781,0.9610000252723694,0.6729999780654907
1773343132722217000,3.975217041015625,-1.559000015258789,1.0870000123977661,0.3619999885559082
1773343132731971000,3.98497119140625,-1.3450000286102295,1.187000036239624,0.22699999809265137
1773343132741725400,3.994725341796875,-0.8709999918937683,1.3619999885559082,0.09000000357627869
1773343132751479800,4.004479736328125,-0.4169999957084656,1.3910000324249268,0.14399999380111694
1773343132761233200,4.014233154296875,0.08500000089406967,1.2740000486373901,0.3319999873638153
1773343132770985700,4.02398583984375,0.35499998927116394,1.1640000343322754,0.5770000219345093
1773343132780739000,4.033739013671875,0.7839999794960022,1.2580000162124634,0.5429999828338623
1773343132790490000,4.043489990234375,0.7910000085830688,1.3919999599456787,0.04100000113248825
1773343132800243000,4.053242919921875,0.5350000262260437,1.468999981880188,-0.28999999165534973
1773343132809995000,4.0629951171875,0.3709999918937683,1.3880000114440918,-0.7139999866485596
1773343132819747600,4.07274755859375,0.017999999225139618,1.3580000400543213,-1.1510000228881836
1773343132829501200,4.082501220703125,-0.0949999988079071,1.2549999952316284,-1.2740000486373901
1773343132839253500,4.09225341796875,-0.2150000035762787,1.1629999876022339,-1.4730000495910645
1773343132849007000,4.102007080078125,-0.5529999732971191,1.1490000486373901,-1.3200000524520874
1773343132858759400,4.111759521484375,-0.4399999976158142,1.1399999856948853,-1.11899995803833
1773343132868511500,4.121511474609375,-0.1889999955892563,1.1230000257492065,-0.7879999876022339
1773343132887528700,4.14052880859375,0.10999999940395355,0.9879999756813049,-0.26499998569488525
1773343132897282300,4.1502822265625,0.30000001192092896,0.8019999861717224,-0.25
1773343132907035400,4.160035400390625,0.30799999833106995,0.5289999842643738,-0.23100000619888306
1773343132916788000,4.1697880859375,0.44200000166893005,0.2800000011920929,-0.2669999897480011
1773343132926539300,4.179539306640625,0.6869999766349792,0.13300000131130219,-0.40299999713897705
1773343132936251100,4.189251220703125,0.9599999785423279,-0.07800000160932541,-0.2750000059604645
1773343132955308000,4.20830810546875,1.4140000343322754,-0.14800000190734863,-0.05700000002980232
1773343132965061400,4.218061279296875,1.5740000009536743,-0.11400000005960464,0.08100000023841858
1773343132974813200,4.227813232421875,1.5410000085830688,-0.20800000429153442,0.2709999978542328
1773343132984565800,4.237565673828125,1.5130000114440918,-0.41999998688697815,0.5910000205039978
1773343132994318600,4.247318603515625,1.305999994277954,-0.46700000762939453,0.9079999923706055
1773343133004072400,4.257072509765625,1.1979999542236328,-0.628000020980835,1.0700000524520874
1773343133013826000,4.266825927734375,1.0290000438690186,-0.6399999856948853,1.2519999742507935
1773343133023579000,4.276578857421875,1.0130000114440918,-0.5320000052452087,1.4500000476837158
1773343133042598100,4.29559814453125,0.777999997138977,-0.4259999990463257,1.88100004196167
1773343133052352000,4.30535205078125,0.6000000238418579,-0.4740000069141388,2.130000114440918
1773343133062106000,4.315106201171875,0.5879999995231628,-0.41100001335144043,2.0959999561309814
1773343133071859700,4.324859619140625,0.5419999957084656,-0.4180000126361847,2.184999942779541
1773343133081615400,4.334615478515625,0.4729999899864197,-0.33000001311302185,2.2869999408721924
1773343133091369700,4.34436962890625,0.46399998664855957,-0.3869999945163727,2.4000000953674316
1773343133101123600,4.35412353515625,0.38199999928474426,-0.47200000286102295,2.2950000762939453
1773343133110877400,4.36387744140625,0.15299999713897705,-0.6269999742507935,2.367000102996826
1773343133120631000,4.373631103515625,0.11400000005960464,-0.6570000052452087,2.368000030517578
1773343133130385200,4.38338525390625,-0.00800000037997961,-0.597000002861023,2.325000047683716
1773343133140137700,4.3931376953125,-0.11900000274181366,-0.42800000309944153,2.24399995803833
1773343133149891300,4.402891357421875,-0.257999986410141,-0.20399999618530273,1.9639999866485596
1773343133159645400,4.4126455078125,-0.375,-0.019999999552965164,1.7000000476837158
1773343133169399600,4.422399658203125,-0.41200000047683716,0.12399999797344208,1.319000005722046
1773343133179154000,4.43215380859375,-0.42899999022483826,0.07699999958276749,1.281999945640564
1773343133188908300,4.441908203125,-0.3779999911785126,0.0010000000474974513,1.2450000047683716
1773343133198662400,4.451662353515625,-0.5299999713897705,-0.020999999716877937,1.2970000505447388
1773343133208415200,4.461415283203125,-0.7990000247955322,0.13099999725818634,1.3170000314712524
1773343133218169000,4.471169189453125,-0.8460000157356262,0.3240000009536743,1.2239999771118164
1773343133227923200,4.480923095703125,-1.0369999408721924,0.37400001287460327,1.2619999647140503
1773343133237677000,4.490677001953125,-1.149999976158142,0.4449999928474426,1.2020000219345093
1773343133247432200,4.50043212890625,-1.1959999799728394,0.44999998807907104,1.0579999685287476
1773343133257186300,4.510186279296875,-1.3350000381469727,0.5109999775886536,0.8320000171661377
1773343133266940000,4.51993994140625,-1.38100004196167,0.47699999809265137,0.5379999876022339
1773343133276692500,4.5296923828125,-1.281000018119812,0.5260000228881836,0.25
1773343133286446300,4.5394462890625,-1.3680000305175781,0.5600000023841858,0.08900000154972076
1773343133296200000,4.549199951171875,-1.3680000305175781,0.5659999847412109,-0.18700000643730164
1773343133305952800,4.558952880859375,-1.3630000352859497,0.6800000071525574,-0.32499998807907104
1773343133315706400,4.568706298828125,-1.434999942779541,0.7770000100135803,-0.2460000067949295
1773343133325460500,4.57846044921875,-1.4359999895095825,0.9129999876022339,-0.1420000046491623
1773343133335215400,4.58821533203125,-1.1629999876022339,0.9850000143051147,-0.10899999737739563
1773343133344969700,4.5979697265625,-0.8389999866485596,0.9779999852180481,0.07599999755620956
1773343133354723800,4.607723876953125,-0.3840000033378601,0.8830000162124634,0.0020000000949949026
1773343133364478200,4.617478271484375,-0.03999999910593033,0.7749999761581421,-0.22699999809265137
1773343133374231600,4.6272314453125,0.21899999678134918,0.7710000276565552,-0.6759999990463257
1773343133383986400,4.636986328125,0.4740000069141388,0.7390000224113464,-1.069000005722046
1773343133393741300,4.6467412109375,0.550000011920929,0.621999979019165,-1.3969999551773071
1773343133412763400,4.665763427734375,0.3529999852180481,0.6299999952316284,-1.906999945640564
1773343133422519000,4.67551904296875,0.12999999523162842,0.5879999995231628,-2.0759999752044678
1773343133432273700,4.685273681640625,-0.2460000067949295,0.6880000233650208,-2.256999969482422
1773343133442027000,4.695027099609375,-0.4519999921321869,0.7749999761581421,-2.1559998989105225
1773343133451782000,4.704781982421875,-0.6990000009536743,0.8410000205039978,-2.132999897003174
1773343133461536000,4.714535888671875,-0.8339999914169312,0.8830000162124634,-2.059000015258789
1773343133471290000,4.7242900390625,-0.8560000061988831,0.9599999785423279,-1.906000018119812
1773343133481041700,4.734041748046875,-1.0110000371932983,0.9660000205039978,-1.784999966621399
1773343133490793700,4.743793701171875,-1.031999945640564,0.9900000095367432,-1.7549999952316284
1773343133500546300,4.75354638671875,-0.9620000123977661,0.9649999737739563,-1.6449999809265137
1773343133510297600,4.763297607421875,-0.8169999718666077,0.7559999823570251,-1.6419999599456787
1773343133520049400,4.77304931640625,-0.6060000061988831,0.6169999837875366,-1.8220000267028809
1773343133529802800,4.782802734375,-0.24300000071525574,0.4690000116825104,-1.8279999494552612
1773343133539555600,4.7925556640625,0.04100000113248825,0.2849999964237213,-1.815000057220459
1773343133549307600,4.8023076171875,0.4819999933242798,0.10000000149011612,-1.8229999542236328
1773343133558923800,4.811923828125,0.8389999866485596,0.12399999797344208,-1.6679999828338623
1773343133578078500,4.831078369140625,1.2450000047683716,-0.10999999940395355,-1.5299999713897705
1773343133587832000,4.84083203125,1.2730000019073486,-0.2160000056028366,-1.5880000591278076
1773343133597585200,4.850585205078125,1.3020000457763672,-0.28200000524520874,-1.6890000104904175
1773343133607340500,4.860340576171875,0.9430000185966492,-0.414000004529953,-1.722000002861023
1773343133617095700,4.870095703125,0.7889999747276306,-0.41200000047683716,-1.7929999828338623
1773343133626849500,4.879849609375,0.6890000104904175,-0.4350000023841858,-1.7949999570846558
1773343133636603000,4.889602783203125,0.800000011920929,-0.49000000953674316,-1.465000033378601
1773343133646213600,4.899213623046875,0.9290000200271606,-0.4180000126361847,-1.1740000247955322
1773343133665373200,4.918373291015625,0.796999990940094,-0.3009999990463257,-1.0140000581741333
1773343133675125800,4.928125732421875,0.5619999766349792,-0.24799999594688416,-0.9290000200271606
1773343133684879400,4.93787939453125,0.2669999897480011,-0.25099998712539673,-0.2930000126361847
1773343133694632400,4.947632568359375,0.4020000100135803,-0.13699999451637268,0.4050000011920929
1773343133704385000,4.957385009765625,0.9480000138282776,-0.2290000021457672,1.0390000343322754
1773343133714139000,4.967138916015625,1.2070000171661377,-0.6349999904632568,1.2050000429153442
1773343133723892500,4.976892578125,1.305999994277954,-1.0520000457763672,1.25
1773343133733645300,4.986645263671875,1.3630000352859497,-1.6440000534057617,1.1779999732971191
1773343133743399000,4.99639892578125,1.2480000257492065,-2.115999937057495,0.8199999928474426
1773343133762419000,5.0154189453125,1.0149999856948853,-2.515000104904175,-0.4970000088214874
1773343133772172000,5.025172119140625,0.9710000157356262,-2.5429999828338623,-0.9039999842643738
1773343133781925600,5.034925537109375,0.9649999737739563,-2.3519999980926514,-1.0980000495910645
1773343133800943900,5.05394384765625,1.3650000095367432,-1.8980000019073486,-0.7839999794960022
1773343133810695700,5.06369580078125,1.6979999542236328,-1.8660000562667847,-0.5770000219345093
1773343133820449500,5.073449462890625,2.122999906539917,-1.7999999523162842,-0.04800000041723251
1773343133830202400,5.083202392578125,2.4600000381469727,-1.8700000047683716,0.2199999988079071
1773343133839955700,5.092955810546875,2.572000026702881,-1.9199999570846558,0.45899999141693115
1773343133849709600,5.10270947265625,2.6080000400543213,-2.0820000171661377,0.6259999871253967
1773343133859463400,5.11246337890625,2.5999999046325684,-2.066999912261963,0.5899999737739563
1773343133869076500,5.122076416015625,2.4749999046325684,-2.0220000743865967,0.6140000224113464
1773343133888237800,5.14123779296875,1.5640000104904175,-2.072999954223633,0.22499999403953552
1773343133897991400,5.150991455078125,1.0099999904632568,-2.1070001125335693,-0.1770000010728836
1773343133907746000,5.16074609375,0.5360000133514404,-2.003999948501587,-0.40400001406669617
1773343133917499400,5.17049951171875,0.2619999945163727,-1.9709999561309814,-0.6029999852180481
1773343133927252700,5.180252685546875,-0.11500000208616257,-1.8919999599456787,-0.6209999918937683
1773343133937005800,5.190005859375,-0.15700000524520874,-1.7929999828338623,-0.5709999799728394
1773343133946759000,5.199759033203125,0.052000001072883606,-1.5670000314712524,-0.3179999887943268
1773343133956511500,5.209511474609375,0.39800000190734863,-1.3600000143051147,-0.36000001430511475
1773343133966262800,5.2192626953125,0.7509999871253967,-1.1729999780654907,-0.22100000083446503
1773343133976016000,5.229015869140625,0.7929999828338623,-1.0230000019073486,0.0010000000474974513
1773343133985770200,5.238770263671875,0.8730000257492065,-1.0399999618530273,0.21299999952316284
1773343133995522800,5.248522705078125,0.8859999775886536,-0.8960000276565552,0.25099998712539673
1773343134005278000,5.25827783203125,0.9409999847412109,-0.7960000038146973,0.07999999821186066
1773343134015030300,5.2680302734375,0.9580000042915344,-0.7620000243186951,0.10899999737739563
1773343134024783600,5.27778369140625,0.9919999837875366,-0.8849999904632568,0.15800000727176666
1773343134034537000,5.287536865234375,0.9980000257492065,-0.8199999928474426,0.2630000114440918
1773343134044289500,5.29728955078125,0.8539999723434448,-0.777999997138977,0.32199999690055847
1773343134063307500,5.3163076171875,0.6230000257492065,-0.5270000100135803,0.25099998712539673
1773343134073059800,5.326059814453125,0.4580000042915344,-0.4970000088214874,0.23100000619888306
1773343134082812700,5.335812744140625,0.29600000381469727,-0.30300000309944153,0.3269999921321869
1773343134092564700,5.345564697265625,-0.024000000208616257,-0.3190000057220459,0.4410000145435333
1773343134102319400,5.3553193359375,-0.3149999976158142,-0.09000000357627869,0.3479999899864197
1773343134112072000,5.365072021484375,-0.4429999887943268,0.020999999716877937,0.2849999964237213
1773343134121825000,5.374824951171875,-0.5839999914169312,0.24799999594688416,0.09399999678134918
1773343134131576800,5.384576904296875,-0.5320000052452087,0.34599998593330383,0.04100000113248825
1773343134141329700,5.39432958984375,-0.3149999976158142,0.5360000133514404,0.09099999815225601
1773343134151081500,5.40408154296875,-0.11500000208616257,0.6079999804496765,0.4399999976158142
1773343134160832000,5.41383203125,0.29899999499320984,0.7620000243186951,0.5170000195503235
1773343134170585300,5.42358544921875,0.4569999873638153,0.8190000057220459,0.6349999904632568
1773343134180338000,5.433337890625,0.5860000252723694,0.8360000252723694,0.5519999861717224
1773343134190091800,5.443091796875,0.5709999799728394,0.7829999923706055,0.5569999814033508
1773343134199844400,5.45284423828125,0.3160000145435333,0.7350000143051147,0.5960000157356262
1773343134209597000,5.462596923828125,0.12200000137090683,0.7789999842643738,0.296999990940094
1773343134219349000,5.472348876953125,0.017000000923871994,0.7689999938011169,0.23600000143051147
1773343134229101000,5.48210107421875,-0.006000000052154064,0.8519999980926514,0.28600001335144043
1773343134238854000,5.49185400390625,-0.19499999284744263,0.972000002861023,0.38600000739097595
1773343134248606500,5.5016064453125,-0.4300000071525574,1.0549999475479126,0.4020000100135803
1773343134258359000,5.511359130859375,-0.796999990940094,1.2869999408721924,0.6570000052452087
1773343134268111600,5.521111572265625,-0.9710000157356262,1.2940000295639038,0.6359999775886536
1773343134277863400,5.530863525390625,-1.3289999961853027,1.3890000581741333,1.0169999599456787
1773343134287615200,5.540615234375,-1.3799999952316284,1.6130000352859497,1.2000000476837158
1773343134297366500,5.550366455078125,-1.2350000143051147,1.746999979019165,1.0399999618530273
1773343134307119400,5.560119384765625,-0.7799999713897705,1.74399995803833,0.621999979019165
1773343134316872000,5.569871826171875,-0.421999990940094,1.4240000247955322,0.2280000001192093
1773343134326624000,5.5796240234375,0.16099999845027924,0.9700000286102295,0.07699999958276749
1773343134345641200,5.59864111328125,0.8569999933242798,0.03799999877810478,-0.503000020980835
1773343134355392800,5.608392822265625,1.1109999418258667,-0.30300000309944153,-1.0700000524520874
1773343134365143600,5.6181435546875,1.1579999923706055,-0.5709999799728394,-1.878999948501587
1773343134374895000,5.62789501953125,0.8730000257492065,-0.5820000171661377,-2.0290000438690186
1773343134384646000,5.63764599609375,0.6499999761581421,-0.6830000281333923,-2
1773343134394396700,5.647396728515625,0.30000001192092896,-0.7519999742507935,-1.7549999952316284
1773343134404149800,5.657149658203125,0.00800000037997961,-0.6669999957084656,-1.1610000133514404
1773343134413900500,5.666900634765625,-0.17599999904632568,-0.5529999732971191,-0.8489999771118164
1773343134423654000,5.67665380859375,-0.3619999885559082,-0.22599999606609344,-0.4779999852180481
1773343134433406000,5.686406005859375,-0.33399999141693115,0.07500000298023224,-0.11800000071525574
1773343134443158300,5.696158203125,-0.24400000274181366,0.2639999985694885,0.5799999833106995
1773343134452910600,5.70591064453125,0.24500000476837158,0.36399999260902405,1.0759999752044678
1773343134462661600,5.71566162109375,0.640999972820282,0.328000009059906,1.4320000410079956
1773343134472413000,5.725412841796875,0.8840000033378601,0.16899999976158142,1.5980000495910645
1773343134482164500,5.73516455078125,0.9419999718666077,0.010999999940395355,1.149999976158142
1773343134491916800,5.744916748046875,0.7919999957084656,-0.18000000715255737,0.49900001287460327
1773343134501644300,5.754644287109375,0.8379999995231628,-0.32199999690055847,0.027000000700354576
1773343134511407600,5.76440771484375,0.5550000071525574,-0.5410000085830688,-0.6380000114440918
1773343134521171500,5.77417138671875,0.23000000417232513,-0.6729999780654907,-0.9700000286102295
1773343134530898200,5.783898193359375,-0.04800000041723251,-0.8489999771118164,-1.4160000085830688
1773343134540662800,5.793662841796875,-0.36500000953674316,-0.7080000042915344,-1.3910000324249268
1773343134550427400,5.803427490234375,-0.5529999732971191,-0.42800000309944153,-1.281000018119812
1773343134560180200,5.81318017578125,-0.6869999766349792,-0.07400000095367432,-0.9700000286102295
1773343134569934600,5.8229345703125,-0.6539999842643738,0.13199999928474426,-0.7310000061988831
1773343134579687200,5.832687255859375,-0.6359999775886536,0.39500001072883606,-0.4009999930858612
1773343134589439500,5.842439453125,-0.5600000023841858,0.4620000123977661,0.01899999938905239
1773343134599191600,5.852191650390625,-0.39500001072883606,0.5199999809265137,0.36500000953674316
1773343134608943000,5.861943115234375,-0.4359999895095825,0.4860000014305115,0.4490000009536743
1773343134618695200,5.871695068359375,-0.42399999499320984,0.5360000133514404,0.4059999883174896
1773343134628446500,5.881446533203125,-0.4230000078678131,0.503000020980835,0.23199999332427979
1773343134638199800,5.89119970703125,-0.4129999876022339,0.5870000123977661,0.03099999949336052
1773343134647952600,5.90095263671875,-0.527999997138977,0.5699999928474426,-0.027000000700354576
1773343134657707000,5.91070703125,-0.6710000038146973,0.5879999995231628,-0.061000000685453415
1773343134667461600,5.920461669921875,-0.671999990940094,0.5569999814033508,-0.0689999982714653
1773343134677216800,5.930216796875,-0.7509999871253967,0.578000009059906,-0.041999999433755875
1773343134686970000,5.93997021484375,-0.5820000171661377,0.5950000286102295,-0.38199999928474426
1773343134696583200,5.949583251953125,-0.49900001287460327,0.36500000953674316,-0.5289999842643738
1773343134715741400,5.968741455078125,-0.16500000655651093,0.22699999809265137,-0.5820000171661377
1773343134725494000,5.978493896484375,0.1340000033378601,0.21299999952316284,-0.35199999809265137
1773343134735246800,5.988246826171875,0.3569999933242798,0.11800000071525574,-0.4860000014305115
1773343134744999200,5.997999267578125,0.652999997138977,0.10899999737739563,-0.45399999618530273
1773343134754751200,6.007751220703125,0.8450000286102295,0.06400000303983688,-0.527999997138977
1773343134764503000,6.0175029296875,0.8740000128746033,-0.18700000643730164,-0.5759999752044678
1773343134774255900,6.027255859375,0.8939999938011169,-0.23499999940395355,-0.35100001096725464
1773343134784007700,6.037007568359375,0.9169999957084656,-0.3050000071525574,-0.4230000078678131
1773343134793803300,6.04680322265625,0.7929999828338623,-0.35499998927116394,-0.6039999723434448
1773343134813261800,6.06626171875,0.6039999723434448,-0.5540000200271606,-1.0540000200271606
1773343134823014000,6.076013916015625,0.2939999997615814,-0.7200000286102295,-0.9860000014305115
1773343134832764000,6.085763916015625,0.10000000149011612,-0.7329999804496765,-0.49300000071525574
1773343134842516000,6.095515869140625,0.2770000100135803,-0.49900001287460327,0.3840000033378601
1773343134852267800,6.105267822265625,0.6779999732971191,-0.3889999985694885,1.0199999809265137
1773343134862019000,6.11501904296875,1.190000057220459,-0.10499999672174454,1.3020000457763672
1773343134871771600,6.124771728515625,1.340000033378601,-0.2590000033378601,1.3869999647140503
1773343134881523700,6.134523681640625,1.5839999914169312,-0.37599998712539673,1.2319999933242798
1773343134900542700,6.153542724609375,1.24399995803833,-1.2259999513626099,0.6869999766349792
1773343134910296600,6.163296630859375,0.8289999961853027,-1.475000023841858,0.3240000009536743
1773343134920049000,6.173048828125,0.5979999899864197,-1.4520000219345093,0.06800000369548798
1773343134929800700,6.18280078125,0.3840000033378601,-1.274999976158142,-0.382999986410141
1773343134939552000,6.192552001953125,0.1899999976158142,-1.1749999523162842,-0.4970000088214874
1773343134949304000,6.202303955078125,0.11400000005960464,-1.0440000295639038,-0.4440000057220459
1773343134959057000,6.212056884765625,0.13500000536441803,-0.9879999756813049,-0.21699999272823334
1773343134968808200,6.22180810546875,0.210999995470047,-0.9340000152587891,0.2619999945163727
1773343134978559700,6.231559814453125,0.6019999980926514,-0.847000002861023,0.8539999723434448
1773343134988310800,6.241310791015625,0.8199999928474426,-0.7609999775886536,1.0980000495910645
1773343134998061800,6.251061767578125,1.0130000114440918,-0.628000020980835,1.3990000486373901
1773343135007813000,6.260813232421875,0.9359999895095825,-0.503000020980835,1.4670000076293945
1773343135017563400,6.2705634765625,0.8159999847412109,-0.42399999499320984,1.3819999694824219
1773343135027315000,6.28031494140625,0.6970000267028809,-0.4410000145435333,1.440000057220459
1773343135037065700,6.290065673828125,0.29600000381469727,-0.43299999833106995,1.2970000505447388
1773343135046817300,6.2998173828125,0.04600000008940697,-0.36500000953674316,1.222000002861023
1773343135056569600,6.309569580078125,-0.20800000429153442,-0.3630000054836273,0.9350000023841858
1773343135066240300,6.319240234375,-0.3840000033378601,-0.32600000500679016,0.8109999895095825
1773343135076071400,6.329071533203125,-0.4259999990463257,-0.19599999487400055,0.6759999990463257
1773343135085823000,6.338822998046875,-0.6610000133514404,-0.035999998450279236,0.6420000195503235
1773343135095574000,6.348573974609375,-0.7129999995231628,-0.0010000000474974513,0.6990000009536743
1773343135105325800,6.358325927734375,-0.777999997138977,0.19900000095367432,0.7400000095367432
1773343135115076000,6.368076171875,-0.765999972820282,0.29899999499320984,0.8889999985694885
1773343135124827600,6.37782763671875,-0.7300000190734863,0.44699999690055847,0.8550000190734863
1773343135134579000,6.387578857421875,-0.8510000109672546,0.5210000276565552,0.5960000157356262
1773343135144330200,6.397330322265625,-0.8650000095367432,0.6110000014305115,0.39100000262260437
1773343135154081000,6.4070810546875,-0.9459999799728394,0.7210000157356262,0.23000000417232513
1773343135163831300,6.416831298828125,-0.9559999704360962,0.7379999756813049,0.0010000000474974513
1773343135173583000,6.4265830078125,-1.0470000505447388,0.6919999718666077,-0.16599999368190765
1773343135183335000,6.4363349609375,-1.128000020980835,0.718999981880188,-0.20200000703334808
1773343135193087200,6.446087158203125,-1.2489999532699585,0.5669999718666077,-0.20999999344348907
1773343135202839600,6.455839599609375,-1.2300000190734863,0.7319999933242798,-0.28600001335144043
1773343135212592000,6.465592041015625,-1.0199999809265137,0.824999988079071,-0.1850000023841858
1773343135222345000,6.475344970703125,-0.6660000085830688,0.7960000038146973,-0.12700000405311584
1773343135232096500,6.485096435546875,-0.46000000834465027,0.7379999756813049,0.16500000655651093
1773343135241848600,6.4948486328125,-0.20499999821186066,0.7680000066757202,0.19699999690055847
1773343135251601200,6.50460107421875,0.1770000010728836,0.6290000081062317,0.2639999985694885
1773343135261188400,6.514188232421875,0.4359999895095825,0.6520000100135803,0.34599998593330383
1773343135280359700,6.533359619140625,0.75,0.6230000257492065,0.6050000190734863
1773343135290124300,6.543124267578125,0.9409999847412109,0.5460000038146973,0.7720000147819519
1773343135299875600,6.55287548828125,1.003999948501587,0.47200000286102295,0.7699999809265137
1773343135309628000,6.5626279296875,1.0329999923706055,0.3799999952316284,0.7120000123977661
1773343135319379700,6.572379638671875,1.1510000228881836,0.38999998569488525,0.6480000019073486
1773343135329132300,6.58213232421875,1.0160000324249268,0.27900001406669617,0.6430000066757202
1773343135338885400,6.591885498046875,0.8920000195503235,0.2759999930858612,0.5049999952316284
1773343135348638200,6.60163818359375,0.8130000233650208,0.16500000655651093,0.4449999928474426
1773343135358391800,6.611391845703125,0.8040000200271606,0.16099999845027924,0.2619999945163727
1773343135368145000,6.621144775390625,0.6790000200271606,0.15600000321865082,0.23000000417232513
1773343135377899300,6.630899169921875,0.7850000262260437,0.09099999815225601,0.3199999928474426
1773343135387653400,6.6406533203125,0.859000027179718,-0.006000000052154064,0.4519999921321869
1773343135397407700,6.65040771484375,1.0529999732971191,-0.28999999165534973,0.3050000071525574
1773343135407163100,6.6601630859375,1.1490000486373901,-0.5879999995231628,0.052000001072883606
1773343135416918300,6.669918212890625,1.0240000486373901,-0.8489999771118164,-0.10700000077486038
1773343135426672000,6.679672119140625,0.8700000047683716,-0.7620000243186951,-0.10100000351667404
1773343135436426000,6.689426025390625,0.41499999165534973,-0.7459999918937683,0.3109999895095825
1773343135446181400,6.699181396484375,0,-0.4779999852180481,0.722000002861023
1773343135455933700,6.70893359375,-0.43700000643730164,-0.032999999821186066,1.059000015258789
1773343135465685800,6.718685791015625,-0.7269999980926514,0.39800000190734863,1.4149999618530273
1773343135475437600,6.7284375,-1.031999945640564,0.6389999985694885,1.8170000314712524
1773343135485190700,6.738190673828125,-0.9629999995231628,0.9049999713897705,2.0450000762939453
1773343135494944000,6.747944091796875,-0.75,1.0049999952316284,2.1010000705718994
1773343135504696800,6.75769677734375,-0.4749999940395355,1.1480000019073486,1.6330000162124634
1773343135514449700,6.76744970703125,-0.41200000047683716,0.9010000228881836,1.0169999599456787
1773343135524201700,6.77720166015625,-0.5339999794960022,0.37299999594688416,0.597000002861023
1773343135533954800,6.786954833984375,-0.3580000102519989,-0.375,0.7310000061988831
1773343135543708000,6.7967080078125,-0.12600000202655792,-0.8169999718666077,0.8230000138282776
1773343135553672400,6.80667236328125,0.23800000548362732,-0.45899999141693115,0.8289999961853027
1773343135563207400,6.81620751953125,0.28600001335144043,-0.29600000381469727,0.6110000014305115
1773343135572960300,6.825960205078125,0.24699999392032623,0.0430000014603138,0.5080000162124634
1773343135582713300,6.83571337890625,0.1850000023841858,0.06800000369548798,0.2409999966621399
1773343135592466700,6.845466796875,-0.04500000178813934,-0.05700000002980232,0.02800000086426735
1773343135602219000,6.855218994140625,-0.23999999463558197,-0.04500000178813934,0.17800000309944153
1773343135611973000,6.86497314453125,-0.6079999804496765,-0.38999998569488525,0.5210000276565552
1773343135621725000,6.874724853515625,-0.9729999899864197,-0.210999995470047,0.4959999918937683
1773343135631477000,6.88447705078125,-1.0230000019073486,-0.024000000208616257,0.2370000034570694
1773343135641229600,6.8942294921875,-0.9980000257492065,0.1289999932050705,0.10599999874830246
1773343135650982400,6.903982421875,-0.7689999938011169,0.08799999952316284,-0.19499999284744263
1773343135660735000,6.91373486328125,-0.7170000076293945,-0.007000000216066837,-0.29899999499320984
1773343135670487300,6.9234873046875,-0.7590000033378601,-0.05000000074505806,-0.03200000151991844
1773343135680241000,6.933240966796875,-0.3880000114440918,-0.3540000021457672,0.06199999898672104
1773343135689993000,6.942992919921875,0.1459999978542328,-0.6600000262260437,0.039000000804662704
1773343135699721500,6.952721435546875,0.8090000152587891,-0.41200000047683716,-0.39500001072883606
1773343135709500400,6.96250048828125,1.0119999647140503,-0.492000013589859,-0.5590000152587891
1773343135737787100,6.990787109375,1.2569999694824219,-0.4490000009536743,-1.628999948501587
1773343135747540700,7.000540771484375,1.0490000247955322,-0.5989999771118164,-1.5010000467300415
1773343135757292800,7.010292724609375,0.7960000038146973,-0.7170000076293945,-1.3359999656677246
1773343135767044900,7.020044921875,0.5979999899864197,-0.7099999785423279,-1.2070000171661377
1773343135776798000,7.0297978515625,0.47099998593330383,-0.9819999933242798,-0.7680000066757202
1773343135786550800,7.03955078125,0.4189999997615814,-0.3490000069141388,-1.3509999513626099
1773343135796302000,7.049302001953125,0.13199999928474426,0.41499999165534973,-1.687999963760376
1773343135806053000,7.05905322265625,-0.03400000184774399,0.2680000066757202,-1.1540000438690186
1773343135815804000,7.068803955078125,-0.08299999684095383,-0.010999999940395355,-0.35100001096725464
1773343135825555000,7.078554931640625,-0.13699999451637268,-0.026000000536441803,-0.15299999713897705
1773343135835306200,7.08830615234375,-0.25999999046325684,0.06499999761581421,-0.29100000858306885
1773343135845056800,7.098056884765625,-0.39100000262260437,0.1770000010728836,-0.3330000042915344
1773343135854807300,7.107807373046875,-0.42399999499320984,0.26899999380111694,-0.052000001072883606
1773343135864559000,7.11755908203125,-0.5580000281333923,0.2680000066757202,0.05700000002980232
1773343135874310100,7.12731005859375,-0.6129999756813049,0.4009999930858612,-0.08699999749660492
1773343135884060400,7.137060302734375,-0.6970000267028809,0.5630000233650208,-0.05299999937415123
1773343135893811200,7.146811279296875,-0.49000000953674316,0.42500001192092896,0.008999999612569809
1773343135903561700,7.156561767578125,-0.17000000178813934,0.31200000643730164,-0.041999999433755875
1773343135913315000,7.166315185546875,0.289000004529953,0.2290000021457672,-0.15700000524520874
1773343135923066600,7.176066650390625,0.7760000228881836,0.15000000596046448,-0.20800000429153442
1773343135932817700,7.185817626953125,0.9909999966621399,0.13099999725818634,-0.20499999821186066
1773343135942569500,7.195569580078125,0.8550000190734863,0.11999999731779099,0.032999999821186066
1773343135952322600,7.205322509765625,0.7099999785423279,0.07699999958276749,-0.06300000101327896
1773343135962075000,7.215074951171875,0.5410000085830688,-0.029999999329447746,0.14499999582767487
1773343135971826200,7.224826171875,0.17499999701976776,-0.013000000268220901,-0.07999999821186066
1773343135981578200,7.234578125,0.006000000052154064,-0.11299999803304672,-0.16699999570846558
1773343135991329800,7.244329833984375,-0.21699999272823334,-0.26499998569488525,-0.3499999940395355
1773343136001083000,7.254082763671875,0.014999999664723873,-0.48500001430511475,-0.4099999964237213
1773343136010834400,7.26383447265625,-0.01899999938905239,-0.5350000262260437,-0.6499999761581421
1773343136020561000,7.273560791015625,0.05999999865889549,-0.7739999890327454,-0.6119999885559082
1773343136030327300,7.283327392578125,0.1420000046491623,-0.781000018119812,-0.3330000042915344
1773343136040093200,7.29309326171875,0.2280000001192093,-0.8069999814033508,0.035999998450279236
1773343136049847600,7.30284765625,0.22499999403953552,-0.6869999766349792,0.21199999749660492
1773343136059601700,7.3126015625,0.5699999928474426,-0.48399999737739563,0.5659999847412109
1773343136069356500,7.3223564453125,0.46799999475479126,-0.4490000009536743,0.8240000009536743
1773343136079110100,7.332110107421875,0.4790000021457672,-0.4180000126361847,0.8489999771118164
1773343136088862500,7.341862548828125,0.460999995470047,-0.39399999380111694,0.5669999718666077
1773343136098615000,7.351614990234375,0.49799999594688416,-0.39399999380111694,0.4000000059604645
1773343136108367400,7.361367431640625,0.5400000214576721,-0.38199999928474426,0.34200000762939453
1773343136118120200,7.3711201171875,0.5709999799728394,-0.42899999022483826,0.2630000114440918
1773343136127873800,7.380873779296875,0.6000000238418579,-0.5109999775886536,0.2919999957084656
1773343136137625900,7.3906259765625,0.5860000252723694,-0.5519999861717224,0.5040000081062317
1773343136147377700,7.400377685546875,0.5479999780654907,-0.5019999742507935,0.5400000214576721
1773343136157129000,7.41012890625,0.44999998807907104,-0.4020000100135803,0.6209999918937683
1773343136166881500,7.419881591796875,0.5049999952316284,-0.33799999952316284,0.7609999775886536
1773343136176632600,7.429632568359375,0.5740000009536743,-0.3610000014305115,0.7400000095367432
1773343136186474500,7.439474609375,0.843999981880188,-0.5590000152587891,0.9139999747276306
1773343136196137000,7.449136962890625,0.8820000290870667,-0.5410000085830688,0.8519999980926514
1773343136205888000,7.458887939453125,1.1019999980926514,-0.6919999718666077,0.597000002861023
1773343136215640300,7.468640380859375,0.8889999985694885,-0.5759999752044678,0.48399999737739563
1773343136225392400,7.478392333984375,0.5569999814033508,-0.5120000243186951,0.33399999141693115
1773343136235144000,7.48814404296875,0.21799999475479126,-0.32600000500679016,0.19200000166893005
1773343136244895500,7.4978955078125,-0.289000004529953,-0.08699999749660492,0.11299999803304672
1773343136254645800,7.507645751953125,-0.6480000019073486,0.04399999976158142,0.2029999941587448
1773343136264397600,7.5173974609375,-1.0240000486373901,0.07900000363588333,0.1550000011920929
1773343136274147800,7.52714794921875,-1.3389999866485596,0.15000000596046448,0.11299999803304672
1773343136283901000,7.53690087890625,-1.375,0.26100000739097595,0.24799999594688416
1773343136293653000,7.546653076171875,-1.2979999780654907,0.2150000035762787,0.31200000643730164
1773343136303404800,7.55640478515625,-1.1230000257492065,0.32100000977516174,0.4560000002384186
1773343136322419700,7.575419677734375,-1.2569999694824219,0.5830000042915344,0.3959999978542328
1773343136332170200,7.585170166015625,-1.4529999494552612,0.6570000052452087,0.3019999861717224
1773343136341921300,7.59492138671875,-1.6160000562667847,0.675000011920929,0.40799999237060547
1773343136360936000,7.61393603515625,-2.0859999656677246,0.6579999923706055,0.3580000102519989
1773343136370686200,7.623686279296875,-1.9859999418258667,0.6660000085830688,0.2809999883174896
1773343136380436700,7.633436767578125,-2.010999917984009,0.6800000071525574,0.23899999260902405
1773343136390187300,7.643187255859375,-1.9329999685287476,0.6990000009536743,0.18199999630451202
1773343136399940400,7.6529404296875,-1.715000033378601,0.6370000243186951,0.07400000095367432
1773343136409693400,7.662693359375,-1.4910000562667847,0.4970000088214874,-0.1809999942779541
1773343136419446500,7.672446533203125,-1.4639999866485596,0.5740000009536743,-0.26899999380111694
1773343136429198600,7.682198486328125,-1.6440000534057617,0.5529999732971191,-0.41499999165534973
1773343136438950000,7.691949951171875,-1.805999994277954,0.6880000233650208,-0.3240000009536743
1773343136448701000,7.701700927734375,-2.2829999923706055,0.7620000243186951,-0.2280000001192093
1773343136458452500,7.711452392578125,-2.5139999389648438,1.0099999904632568,-0.039000000804662704
1773343136468204500,7.72120458984375,-2.7339999675750732,1.2569999694824219,-0.0430000014603138
1773343136477955300,7.730955322265625,-2.759999990463257,1.305999994277954,-0.22300000488758087
1773343136487706400,7.740706298828125,-2.4509999752044678,1.2549999952316284,-0.44200000166893005
1773343136497457700,7.750457763671875,-2.0260000228881836,1.1619999408721924,-0.5669999718666077
1773343136507208000,7.7602080078125,-1.531000018119812,1.031000018119812,-0.625
1773343136516959500,7.76995947265625,-0.9909999966621399,0.8830000162124634,-0.5540000200271606
1773343136526712000,7.779712158203125,-0.5479999780654907,0.7950000166893005,-0.5630000233650208
1773343136536464400,7.78946435546875,-0.2980000078678131,0.8320000171661377,-0.6830000281333923
1773343136546218000,7.799218017578125,-0.40799999237060547,1.00600004196167,-0.7089999914169312
1773343136555957800,7.808957763671875,-0.8140000104904175,1.2710000276565552,-0.5720000267028809
1773343136565723400,7.818723388671875,-1.0920000076293945,1.2990000247955322,-0.5339999794960022
1773343136575474700,7.828474609375,-0.746999979019165,1.2230000495910645,-0.3479999899864197
1773343136585224400,7.838224365234375,0.16899999976158142,1.194000005722046,-0.3160000145435333
1773343136594973400,7.847973388671875,1.2719999551773071,1.1449999809265137,-0.20900000631809235
1773343136604725200,7.857725341796875,2.0230000019073486,1.225000023841858,-0.421999990940094
1773343136614477600,7.8674775390625,1.8949999809265137,1.312000036239624,-0.7080000042915344
1773343136624229400,7.8772294921875,1.1130000352859497,1.36899995803833,-1.0640000104904175
1773343136633981400,7.8869814453125,0.31700000166893005,1.0829999446868896,-1.069000005722046
1773343136643732500,7.896732421875,0.09300000220537186,1.0080000162124634,-0.8600000143051147
1773343136653472800,7.90647265625,0.3720000088214874,0.8730000257492065,-0.6079999804496765
1773343136672983600,7.925983642578125,2.4149999618530273,0.7620000243186951,0.17000000178813934
1773343136682734000,7.935734130859375,3.2990000247955322,0.7250000238418579,0.5680000185966492
1773343136692484400,7.945484375,3.753000020980835,0.6449999809265137,0.7289999723434448
1773343136702235600,7.955235595703125,3.7929999828338623,0.6079999804496765,0.621999979019165
1773343136711986200,7.964986083984375,3.5360000133514404,0.3630000054836273,0.5490000247955322
1773343136721736700,7.97473681640625,2.9830000400543213,0.25099998712539673,0.30000001192092896
1773343136731487500,7.984487548828125,2.61299991607666,0.28200000524520874,0.3070000112056732
1773343136741238000,7.994238037109375,2.259000062942505,0.257999986410141,0.5090000033378601
1773343136750990000,8.003989990234375,1.8250000476837158,0.29600000381469727,0.6899999976158142
1773343136760739800,8.01373974609375,1.3309999704360962,0.21199999749660492,1.1319999694824219
1773343136770492700,8.02349267578125,0.7390000224113464,0.14399999380111694,1.2829999923706055
1773343136780244200,8.033244140625,0.27399998903274536,0.1340000033378601,0.9660000205039978
1773343136789994200,8.042994140625,-0.2980000078678131,-0.04500000178813934,0.746999979019165
1773343136799744800,8.052744873046874,-0.8349999785423279,-0.1809999942779541,0.23800000548362732
1773343136809497000,8.0624970703125,-1.274999976158142,-0.24300000071525574,-0.28200000524520874
1773343136819250400,8.07225048828125,-1.6390000581741333,-0.4740000069141388,-0.6190000176429749
1773343136829003500,8.08200341796875,-1.8459999561309814,-0.41499999165534973,-0.8960000276565552
1773343136838620700,8.09162060546875,-1.9470000267028809,-0.38999998569488525,-1.0099999904632568
1773343136857773000,8.11077294921875,-2.486999988555908,-0.2199999988079071,-0.6430000066757202
1773343136867524400,8.1205244140625,-2.5889999866485596,-0.09200000017881393,-0.3269999921321869
1773343136877274400,8.1302744140625,-2.5759999752044678,-0.014999999664723873,-0.20999999344348907
1773343136887022800,8.14002294921875,-2.305000066757202,0.003000000026077032,-0.11800000071525574
1773343136896772900,8.14977294921875,-1.7879999876022339,-0.12800000607967377,-0.3019999861717224
1773343136906524400,8.1595244140625,-1.1710000038146973,-0.31299999356269836,-0.375
1773343136916275500,8.169275390625,-0.7519999742507935,-0.27399998903274536,-0.40799999237060547
1773343136926025000,8.17902490234375,-0.3659999966621399,-0.2290000021457672,-0.3869999945163727
1773343136935774500,8.1887744140625,-0.550000011920929,-0.2329999953508377,-0.19599999487400055
1773343136945524700,8.198524658203125,-0.9950000047683716,-0.2879999876022339,-0.20999999344348907
1773343136955276800,8.20827685546875,-1.4780000448226929,-0.3019999861717224,-0.05299999937415123
1773343136965028900,8.21802880859375,-1.9270000457763672,-0.2930000126361847,-0.017999999225139618
1773343136974781200,8.22778125,-1.9700000286102295,-0.29600000381469727,0.1459999978542328
1773343136984533000,8.237532958984374,-1.9170000553131104,-0.11599999666213989,0.10700000077486038
1773343136994283500,8.247283447265625,-1.7200000286102295,0.04399999976158142,0.1289999932050705
1773343137004035000,8.25703515625,-1.4279999732971191,0.20900000631809235,0.2549999952316284
1773343137013785300,8.266785400390624,-1.2289999723434448,0.47099998593330383,0.3889999985694885
1773343137023535900,8.276535888671875,-1.1100000143051147,0.5799999833106995,0.2879999876022339
1773343137033286400,8.286286376953125,-1.065000057220459,0.8379999995231628,0.24300000071525574
1773343137043036200,8.2960361328125,-0.9139999747276306,0.8569999933242798,0.0949999988079071
1773343137052788000,8.3057880859375,-0.5049999952316284,0.7519999742507935,0.2409999966621399
1773343137062538800,8.315538818359375,0.17100000381469727,0.4410000145435333,0.3019999861717224
1773343137072290300,8.325290283203126,1.0230000019073486,0.23199999332427979,0.5289999842643738
1773343137082040800,8.335040771484374,2.1679999828338623,0.05900000035762787,0.5080000162124634
1773343137091790600,8.34479052734375,3.3010001182556152,0.050999999046325684,0.7720000147819519
1773343137101541000,8.354541015625,4.224999904632568,-0.07000000029802322,0.8960000276565552
1773343137111291000,8.364290771484375,4.77400016784668,-0.17900000512599945,0.890999972820282
1773343137120875800,8.373875732421874,4.870999813079834,-0.2329999953508377,0.7649999856948853
1773343137140057900,8.393057861328124,3.7200000286102295,-0.3240000009536743,0.07400000095367432
1773343137149809000,8.402808837890625,2.7339999675750732,-0.2160000056028366,-0.4099999964237213
1773343137159559400,8.412559326171875,1.7690000534057617,-0.27000001072883606,-0.8029999732971191
1773343137169310700,8.422310791015626,1.2230000495910645,-0.29499998688697815,-0.9509999752044678
1773343137179060200,8.432060302734374,0.8679999709129333,-0.2840000092983246,-1.0670000314712524
1773343137188810200,8.441810302734375,0.6330000162124634,-0.14499999582767487,-1.100000023841858
1773343137198561300,8.451561279296875,0.6579999923706055,-0.15800000727176666,-0.640999972820282
1773343137208313300,8.461313232421874,0.8600000143051147,-0.017000000923871994,-0.1509999930858612
1773343137218065700,8.471065673828125,1.2640000581741333,-0.0010000000474974513,0.28999999165534973
1773343137227817200,8.480817138671876,1.3279999494552612,0.2750000059604645,0.5699999928474426
1773343137237570000,8.490570068359375,0.8529999852180481,0.3050000071525574,0.6209999918937683
1773343137247321600,8.500321533203126,0.46399998664855957,0.2680000066757202,0.5379999876022339
1773343137257073200,8.5100732421875,-0.11800000071525574,0.4230000078678131,0.43299999833106995
1773343137276089300,8.52908935546875,-0.4779999852180481,0.44200000166893005,-0.08299999684095383
1773343137285841700,8.538841552734375,-0.4659999907016754,0.4779999852180481,-0.23999999463558197
1773343137295593700,8.54859375,-0.5360000133514404,0.5070000290870667,-0.44999998807907104
1773343137305346300,8.55834619140625,-0.8019999861717224,0.46799999475479126,-0.4480000138282776
1773343137315096800,8.568096923828126,-0.9139999747276306,0.42899999022483826,-0.40299999713897705
1773343137324847600,8.57784765625,-0.7699999809265137,0.33500000834465027,-0.45899999141693115
1773343137334598700,8.5875986328125,-0.3619999885559082,0.3160000145435333,-0.5410000085830688
1773343137344350200,8.59735009765625,0.0949999988079071,0.26499998569488525,-0.5509999990463257
1773343137354102000,8.60710205078125,0.36899998784065247,0.13500000536441803,-0.6100000143051147
1773343137363853800,8.616853759765625,0.4059999883174896,0.16300000250339508,-0.7630000114440918
1773343137373605600,8.626605712890624,0.621999979019165,-0.09700000286102295,-0.8939999938011169
1773343137383359000,8.63635888671875,0.5519999861717224,-0.3310000002384186,-0.7770000100135803
1773343137393111300,8.646111328125,0.4059999883174896,-0.3490000069141388,-0.8769999742507935
1773343137402866000,8.655865966796876,-0.024000000208616257,-0.46700000762939453,-0.9570000171661377
1773343137412618800,8.66561865234375,-0.36399999260902405,-0.40400001406669617,-1.0549999475479126
1773343137422371300,8.675371337890626,-0.9160000085830688,-0.22300000488758087,-1.1050000190734863
1773343137432124000,8.6851240234375,-1.3489999771118164,-0.013000000268220901,-1.097000002861023
1773343137441876000,8.6948759765625,-1.875,0.08399999886751175,-0.8809999823570251
1773343137451629800,8.7046298828125,-1.9570000171661377,0.19499999284744263,-0.45500001311302185
1773343137461383000,8.7143828125,-1.9229999780654907,0.2759999930858612,-0.2590000033378601
1773343137471136000,8.724135986328125,-1.7860000133514404,0.20900000631809235,0.05999999865889549
1773343137480863200,8.73386328125,-1.6230000257492065,0.09700000286102295,0.12800000607967377
1773343137490626800,8.743626708984374,-1.4329999685287476,0.12999999523162842,0.41600000858306885
1773343137500391000,8.753390869140626,-1.4110000133514404,0.11500000208616257,0.06400000303983688
1773343137510142500,8.763142578125,-1.3339999914169312,0.19099999964237213,-0.3089999854564667
1773343137519869700,8.77286962890625,-1.4129999876022339,0.20900000631809235,-0.5659999847412109
1773343137529645600,8.7826455078125,-1.4040000438690186,0.2029999941587448,-0.6610000133514404
1773343137539398700,8.792398681640625,-1.371000051498413,0.16899999976158142,-0.531000018119812
1773343137549150000,8.80214990234375,-1.1440000534057617,0.3490000069141388,-0.7009999752044678
1773343137568163800,8.821163818359375,-0.35899999737739563,0.27399998903274536,-0.42399999499320984
1773343137577913600,8.83091357421875,0.20900000631809235,0.1550000011920929,-0.40299999713897705
1773343137587648800,8.840648681640625,0.9419999718666077,0.0010000000474974513,-0.33899998664855957
1773343137607166200,8.860166259765625,1.9229999780654907,-0.03999999910593033,-0.8320000171661377
1773343137616919000,8.8699189453125,1.718000054359436,-0.1509999930858612,-1.1729999780654907
1773343137626670800,8.8796708984375,0.847000002861023,-0.017000000923871994,-1.5290000438690186
1773343137636422700,8.889422607421874,-0.0020000000949949026,0.2290000021457672,-1.8229999542236328
1773343137646174000,8.899174072265625,-0.39800000190734863,0.16500000655651093,-1.753000020980835
1773343137655925800,8.90892578125,-0.13199999928474426,0.14000000059604645,-1.1390000581741333
1773343137665678000,8.918677978515625,0.4519999921321869,-0.2240000069141388,-0.6299999952316284
1773343137675431000,8.928430908203126,1.3329999446868896,-0.36000001430511475,-0.2549999952316284
1773343137685183000,8.938182861328125,2.0769999027252197,-0.3709999918937683,-0.05900000035762787
1773343137694933500,8.94793359375,2.5899999141693115,-0.460999995470047,0.07800000160932541
1773343137704685600,8.957685546875,2.739000082015991,-0.5419999957084656,-0.02800000086426735
1773343137714436900,8.967436767578125,2.796999931335449,-0.5609999895095825,0.026000000536441803
1773343137724176600,8.9771767578125,2.940999984741211,-0.5830000042915344,-0.035999998450279236
1773343137733941500,8.98694140625,2.9609999656677246,-0.7440000176429749,0.07900000363588333
1773343137743692300,8.9966923828125,2.819999933242798,-0.8799999952316284,0.2460000067949295
1773343137753444400,9.0064443359375,2.3929998874664307,-0.8659999966621399,0.4390000104904175
1773343137763197200,9.016197265625,2.0850000381469727,-0.9369999766349792,0.5860000252723694
1773343137772951000,9.025950927734375,1.659000039100647,-0.8029999732971191,0.7139999866485596
1773343137782703900,9.035703857421876,1.5449999570846558,-0.718999981880188,0.8190000057220459
1773343137792456200,9.045456298828125,1.1540000438690186,-0.6930000185966492,0.7879999876022339
1773343137802210600,9.05521044921875,0.6790000200271606,-0.6790000200271606,0.925000011920929
1773343137811962400,9.06496240234375,0.24199999868869781,-0.6660000085830688,0.7020000219345093
1773343137821715000,9.07471484375,-0.23800000548362732,-0.6370000243186951,0.5429999828338623
1773343137831466000,9.084466064453125,-0.7260000109672546,-0.621999979019165,0.4259999990463257
1773343137841208800,9.094208740234375,-1.1579999923706055,-0.4569999873638153,0.22499999403953552
1773343137850970600,9.103970703125,-1.4149999618530273,-0.4779999852180481,-0.09300000220537186
1773343137860729900,9.113729736328125,-1.715000033378601,-0.5230000019073486,-0.36899998784065247
1773343137870463700,9.123463623046876,-1.7419999837875366,-0.6600000262260437,-0.5230000019073486
1773343137880231000,9.13323095703125,-1.5670000314712524,-0.7730000019073486,-0.5550000071525574
1773343137889969000,9.142968994140626,-1.3259999752044678,-0.8489999771118164,-0.5740000009536743
1773343137899742500,9.152742431640625,-0.9700000286102295,-0.8240000009536743,-0.3569999933242798
1773343137909496800,9.162496826171875,-0.47200000286102295,-0.8299999833106995,-0.1979999989271164
1773343137919251500,9.17225146484375,-0.12300000339746475,-0.9810000061988831,0.1420000046491623
1773343137929005600,9.182005615234376,0.20100000500679016,-0.9350000023841858,0.2809999883174896
1773343137938760000,9.191760009765625,0.4429999887943268,-0.8960000276565552,0.3089999854564667
1773343137948513300,9.20151318359375,0.4569999873638153,-0.8650000095367432,0.4050000011920929
1773343137967530800,9.22053076171875,-0.335999995470047,-0.6600000262260437,0.546999990940094
1773343137977282000,9.230281982421875,-0.9290000200271606,-0.6299999952316284,0.671999990940094
1773343137987033900,9.240033935546874,-1.3860000371932983,-0.5239999890327454,0.8880000114440918
1773343138006049800,9.2590498046875,-1.4850000143051147,-0.3179999887943268,1.4149999618530273
1773343138015801600,9.268801513671875,-1.1759999990463257,-0.19699999690055847,1.6269999742507935
1773343138025553700,9.2785537109375,-0.7200000286102295,-0.03200000151991844,1.7910000085830688
1773343138035306000,9.288305908203125,-0.40700000524520874,0.05400000140070915,1.8359999656677246
1773343138045060000,9.29806005859375,-0.2329999953508377,0.2280000001192093,1.6970000267028809
1773343138064077600,9.31707763671875,0.2240000069141388,0.11900000274181366,1.3329999446868896
1773343138073831400,9.32683154296875,0.4569999873638153,-0.0020000000949949026,1.343000054359436
1773343138083585000,9.3365849609375,0.6380000114440918,-0.14300000667572021,1.4490000009536743
1773343138093339000,9.3463388671875,0.8960000276565552,-0.25699999928474426,1.2910000085830688
1773343138103092000,9.356092041015625,1.3320000171661377,-0.3440000116825104,1.1080000400543213
1773343138112843800,9.36584375,1.7549999952316284,-0.3970000147819519,1.1640000343322754
1773343138122595800,9.375595947265625,2.053999900817871,-0.48500001430511475,1.2050000429153442
1773343138132349000,9.385348876953126,2.4010000228881836,-0.5239999890327454,1.1790000200271606
1773343138142103800,9.395103759765625,2.5869998931884766,-0.527999997138977,0.8930000066757202
1773343138151857400,9.404857421875,2.50600004196167,-0.6510000228881836,0.5460000038146973
1773343138161612300,9.4146123046875,2.3329999446868896,-0.6880000233650208,0.13600000739097595
1773343138171367200,9.4243671875,1.9210000038146973,-0.7250000238418579,-0.27900001406669617
1773343138181122800,9.434122802734375,1.6579999923706055,-0.5019999742507935,-0.6930000185966492
1773343138190852900,9.443852783203125,1.149999976158142,-0.10400000214576721,-1.0509999990463257
1773343138200619800,9.453619873046875,0.8270000219345093,0.27900001406669617,-1.3830000162124634
1773343138210387200,9.46338720703125,0.10199999809265137,0.6299999952316284,-1.3930000066757202
1773343138220141300,9.473141357421875,-0.6489999890327454,0.7599999904632568,-1.1710000038146973
1773343138229870000,9.4828701171875,-1.1699999570846558,0.7490000128746033,-0.8349999785423279
1773343138239649800,9.49264990234375,-1.2569999694824219,0.6930000185966492,-0.6740000247955322
1773343138249404200,9.502404052734375,-1.062000036239624,0.656000018119812,-0.3840000033378601
1773343138259160000,9.51216015625,-0.45100000500679016,0.515999972820282,-0.23499999940395355
1773343138268914700,9.521914794921875,0.09600000083446503,0.6510000228881836,0.010999999940395355
1773343138278669800,9.531669921875,0.4650000035762787,0.49399998784065247,-0.1550000011920929
1773343138288425200,9.54142529296875,0.6029999852180481,0.1860000044107437,-0.5329999923706055
1773343138298180000,9.55118017578125,0.5809999704360962,-0.014000000432133675,-1.1369999647140503
1773343138307935000,9.56093505859375,0.37400001287460327,-0.20499999821186066,-1.815999984741211
1773343138317689000,9.570689208984374,0.06300000101327896,-0.25600001215934753,-2.239000082015991
1773343138327443700,9.580443603515626,-0.2919999957084656,-0.3779999911785126,-2.490999937057495
1773343138337198000,9.590197998046875,-0.597000002861023,-0.13600000739097595,-2.749000072479248
1773343138346952400,9.599952392578125,-0.7599999904632568,0.05999999865889549,-2.618000030517578
1773343138356706000,9.6097060546875,-0.9129999876022339,0.4390000104904175,-2.2869999408721924
1773343138366459100,9.619459228515625,-1.0959999561309814,0.6320000290870667,-2.1410000324249268
1773343138376210700,9.629210693359376,-1.25600004196167,0.7770000100135803,-2.1589999198913574
1773343138385963300,9.63896337890625,-1.3450000286102295,0.7760000228881836,-2.4189999103546143
1773343138395715600,9.648715576171876,-1.3140000104904175,0.6940000057220459,-2.4570000171661377
1773343138405469000,9.658468994140625,-1.0850000381469727,0.5619999766349792,-2.49399995803833
1773343138415221800,9.6682216796875,-0.9599999785423279,0.3889999985694885,-2.075000047683716
1773343138424974000,9.67797412109375,-0.6029999852180481,0.29600000381469727,-1.5490000247955322
1773343138434727200,9.68772705078125,-0.1599999964237213,0.07500000298023224,-1.3009999990463257
1773343138444480300,9.697480224609375,0.3529999852180481,-0.15299999713897705,-0.9629999995231628
1773343138454233300,9.7072333984375,0.7300000190734863,-0.29100000858306885,-0.8029999732971191
1773343138463986000,9.71698583984375,1.0269999504089355,-0.6240000128746033,-0.5849999785423279
1773343138473739000,9.726739013671875,1.1799999475479126,-0.8610000014305115,-0.2540000081062317
1773343138483491800,9.736491943359376,1.3020000457763672,-0.8999999761581421,-0.10100000351667404
1773343138493245700,9.74624560546875,1.315999984741211,-0.9480000138282776,0.08100000023841858
1773343138502999300,9.755999267578124,1.1890000104904175,-0.9100000262260437,0.21400000154972076
1773343138512672500,9.765672607421875,1.0880000591278076,-0.8859999775886536,0.4740000069141388
1773343138531759400,9.78475927734375,0.29499998688697815,-0.8330000042915344,0.8270000219345093
1773343138541526500,9.794526611328125,-0.25600001215934753,-0.8939999938011169,0.8769999742507935
1773343138551281200,9.80428125,-0.6230000257492065,-0.953000009059906,0.7730000019073486
1773343138561036000,9.8140361328125,-0.9850000143051147,-1.0750000476837158,0.6859999895095825
1773343138570796800,9.823796875,-1.2890000343322754,-0.8220000267028809,0.5519999861717224
1773343138580532500,9.833532470703124,-1.4279999732971191,-0.7319999933242798,0.5440000295639038
1773343138590300000,9.8432998046875,-1.4529999494552612,-0.675000011920929,0.7250000238418579
1773343138600053500,9.853053466796876,-0.9549999833106995,-0.5669999718666077,0.925000011920929
1773343138609807600,9.8628076171875,-0.5059999823570251,-0.4909999966621399,1.11899995803833
1773343138619562500,9.8725625,0.28600001335144043,-0.32499998807907104,1.2569999694824219
1773343138629316600,9.882316650390624,0.9449999928474426,-0.22100000083446503,1.312000036239624
1773343138639072000,9.892072021484376,1.402999997138977,-0.19300000369548798,1.312999963760376
1773343138648825600,9.90182568359375,1.4859999418258667,-0.3499999940395355,1.3990000486373901
1773343138658578400,9.911578369140624,1.36899995803833,-0.3190000057220459,1.3339999914169312
1773343138668330200,9.921330322265625,1.3200000524520874,-0.23800000548362732,1.2610000371932983
1773343138678082800,9.931082763671874,1.1169999837875366,-0.23899999260902405,1.4500000476837158
1773343138687835100,9.940835205078125,0.6510000228881836,-0.10400000214576721,1.6759999990463257
1773343138697587500,9.95058740234375,0.37599998712539673,-0.028999999165534973,1.8289999961853027
1773343138707339500,9.960339599609375,0.22300000488758087,-0.057999998331069946,2.115999937057495
1773343138717090600,9.970090576171875,0.15299999713897705,0.05400000140070915,2.555000066757202
1773343138726842000,9.979842041015624,0.382999986410141,0.27799999713897705,2.921999931335449
1773343138736594200,9.98959423828125,0.9670000076293945,0.6320000290870667,2.8580000400543213
1773343138746348000,9.99934814453125,1.3839999437332153,0.8100000023841858,2.7799999713897705
1773343138756100000,10.00910009765625,1.9049999713897705,0.8500000238418579,2.2790000438690186
1773343138765851400,10.018851318359374,2.2269999980926514,0.8880000114440918,2.010999917984009
1773343138775602400,10.0286025390625,2.4860000610351562,0.6800000071525574,1.8370000123977661
1773343138785355300,10.038355224609376,2.2139999866485596,0.6759999990463257,1.8849999904632568
1773343138795108600,10.048108642578125,2.005000114440918,0.4180000126361847,2.181999921798706
1773343138804859600,10.057859619140626,1.7599999904632568,0.3230000138282776,2.2179999351501465
1773343138814613000,10.067613037109375,1.1729999780654907,0.32100000977516174,2.250999927520752
1773343138824366800,10.077366943359374,0.7419999837875366,0.40700000524520874,2.118000030517578
1773343138834120000,10.087119873046875,0.27900001406669617,0.5400000214576721,1.8589999675750732
1773343138843873500,10.09687353515625,-0.04500000178813934,0.5740000009536743,1.565999984741211
1773343138853626000,10.106626220703125,-0.3319999873638153,0.8100000023841858,1.3170000314712524
1773343138863379500,10.11637939453125,-0.49000000953674316,0.8299999833106995,1.149999976158142
1773343138873133300,10.12613330078125,-0.6010000109672546,1.0160000324249268,1.0240000486373901
1773343138882886400,10.135886474609375,-0.9020000100135803,0.8809999823570251,0.8600000143051147
1773343138901905700,10.15490576171875,-1.3830000162124634,0.6930000185966492,0.1289999932050705
1773343138911658200,10.164658203125,-1.6540000438690186,0.5070000290870667,-0.1379999965429306
1773343138921410000,10.17441015625,-2.1659998893737793,0.3919999897480011,-0.3540000021457672
1773343138931136500,10.184136474609375,-2.4210000038146973,0.6169999837875366,-0.5490000247955322
1773343138940901600,10.193901611328124,-2.38100004196167,0.8140000104904175,-0.8809999823570251
1773343138950666000,10.203666015625,-2.234999895095825,0.9570000171661377,-1.1759999990463257
1773343138960427000,10.213427001953125,-1.9429999589920044,1.1510000228881836,-1.187999963760376
1773343138970172000,10.223171875,-1.437999963760376,1.2130000591278076,-0.8769999742507935
1773343138979722200,10.23272216796875,-1.1119999885559082,1.034000039100647,-0.546999990940094
1773343138998940700,10.251940673828125,-0.7149999737739563,0.8040000200271606,-0.3019999861717224
1773343139008694000,10.261694091796874,-0.6019999980926514,0.6919999718666077,-0.4429999887943268
1773343139018445600,10.271445556640625,-0.7149999737739563,0.4620000123977661,-0.5120000243186951
1773343139028198700,10.28119873046875,-0.7689999938011169,0.375,-0.6790000200271606
1773343139037950000,10.290949951171875,-0.8299999833106995,0.1080000028014183,-0.8109999895095825
1773343139047701000,10.300700927734376,-0.9129999876022339,-0.035999998450279236,-0.828000009059906
1773343139057452800,10.310452880859375,-0.8799999952316284,-0.07599999755620956,-0.9300000071525574
1773343139067205000,10.320205078125,-0.7820000052452087,-0.03500000014901161,-1.0410000085830688
1773343139076957400,10.32995751953125,-0.7639999985694885,0.1120000034570694,-1.1690000295639038
1773343139086709800,10.339709716796875,-0.781000018119812,0.05000000074505806,-1.371999979019165
1773343139096461300,10.34946142578125,-0.8349999785423279,-0.06300000101327896,-1.496000051498413
1773343139106214000,10.3592138671875,-0.8220000267028809,-0.1599999964237213,-1.4919999837875366
1773343139115966200,10.36896630859375,-0.7269999980926514,-0.08799999952316284,-1.222000002861023
1773343139125718500,10.378718505859375,-0.46799999475479126,-0.19900000095367432,-0.9139999747276306
1773343139135469800,10.3884697265625,-0.08399999886751175,-0.20999999344348907,-0.460999995470047
1773343139145222000,10.398221923828125,0.4320000112056732,-0.44699999690055847,0.024000000208616257
1773343139154975200,10.407975341796876,0.8199999928474426,-0.6470000147819519,0.22499999403953552
1773343139164731000,10.41773095703125,1.4160000085830688,-0.7269999980926514,0.31200000643730164
1773343139174485200,10.4274853515625,1.7380000352859497,-0.8429999947547913,0.2669999897480011
1773343139184239400,10.4372392578125,1.9559999704360962,-1.0609999895095825,0.12099999934434891
1773343139193993700,10.44699365234375,1.8459999561309814,-1.3170000314712524,-0.2709999978542328
1773343139203747000,10.4567470703125,1.687999963760376,-1.3389999866485596,-0.7710000276565552
1773343139213501000,10.4665009765625,1.590999960899353,-1.371999979019165,-1.315000057220459
1773343139223258000,10.476258056640624,1.4570000171661377,-1.1490000486373901,-1.6970000267028809
1773343139233008600,10.486008544921875,1.3339999914169312,-0.7670000195503235,-1.7130000591278076
1773343139242763300,10.49576318359375,1.2649999856948853,-0.492000013589859,-1.5440000295639038
1773343139252516000,10.50551611328125,1.1979999542236328,-0.33899998664855957,-1.4220000505447388
1773343139262269000,10.51526904296875,1.125,-0.164000004529953,-0.9810000061988831
1773343139272021500,10.525021484375,0.8709999918937683,-0.16899999976158142,-0.550000011920929
1773343139281773800,10.53477392578125,0.7440000176429749,-0.21400000154972076,-0.14800000190734863
1773343139291527000,10.54452685546875,0.8690000176429749,-0.1080000028014183,0.041999999433755875
1773343139301278000,10.55427783203125,0.9580000042915344,-0.05400000140070915,0.2680000066757202
1773343139311030300,10.5640302734375,1.1390000581741333,-0.05000000074505806,0.20399999618530273
1773343139320756700,10.5737568359375,1.0829999446868896,-0.20200000703334808,-0.07500000298023224
1773343139330538200,10.583538330078126,1.3380000591278076,-0.27300000190734863,-0.5460000038146973
1773343139340286700,10.59328662109375,1.2960000038146973,-0.367000013589859,-1.2300000190734863
1773343139350040300,10.603040283203125,0.8889999985694885,-0.4399999976158142,-1.7419999837875366
1773343139359793000,10.61279296875,0.4490000009536743,-0.38999998569488525,-2.3369998931884766
1773343139369544200,10.622544189453125,-0.061000000685453415,-0.4269999861717224,-2.7170000076293945
1773343139379296000,10.6322958984375,-0.503000020980835,-0.3720000088214874,-2.8329999446868896
1773343139389054000,10.642053955078126,-0.8730000257492065,-0.07800000160932541,-2.821000099182129
1773343139398798000,10.651798095703125,-1.0809999704360962,0.019999999552965164,-2.578000068664551
1773343139408549600,10.661549560546876,-0.9769999980926514,0.2930000126361847,-2.2880001068115234
1773343139418301200,10.67130126953125,-0.9779999852180481,0.5460000038146973,-2.065999984741211
1773343139428053200,10.68105322265625,-0.8149999976158142,0.6779999732971191,-1.934999942779541
1773343139437804000,10.690803955078126,-0.6290000081062317,0.7549999952316284,-1.7079999446868896
1773343139456561200,10.70956103515625,0.09700000286102295,0.5299999713897705,-1.7389999628067017
1773343139466083600,10.71908349609375,0.6039999723434448,0.35600000619888306,-1.7330000400543213
1773343139475835600,10.728835693359375,0.8679999709129333,0.027000000700354576,-1.7699999809265137
1773343139485586400,10.73858642578125,0.9300000071525574,-0.04899999871850014,-1.8300000429153442
1773343139495338000,10.748337890625,0.9160000085830688,-0.23600000143051147,-1.8359999656677246
1773343139505089300,10.75808935546875,0.6940000057220459,-0.39500001072883606,-1.8489999771118164
1773343139514840600,10.767840576171874,0.4410000145435333,-0.3240000009536743,-1.753000020980835
1773343139524592600,10.777592529296875,0.2709999978542328,-0.39399999380111694,-1.6619999408721924
1773343139534345000,10.787344970703124,-0.1459999978542328,-0.2240000069141388,-1.4479999542236328
1773343139544096000,10.797095947265625,-0.2800000011920929,-0.09700000286102295,-1.1610000133514404
1773343139553847800,10.806847900390625,-0.5009999871253967,0.08799999952316284,-0.8059999942779541
1773343139563599600,10.816599609375,-0.878000020980835,0.20100000500679016,-0.4020000100135803
1773343139573350700,10.8263505859375,-1.055999994277954,0.22300000488758087,-0.14499999582767487
1773343139583103000,10.83610302734375,-1.2089999914169312,0.2549999952316284,-0.08500000089406967
1773343139592855000,10.84585498046875,-1.3509999513626099,0.2809999883174896,0.014000000432133675
1773343139602606800,10.85560693359375,-1.4759999513626099,0.29100000858306885,0.07100000232458115
1773343139612359000,10.86535888671875,-1.4919999837875366,0.3959999978542328,0.09000000357627869
1773343139622110700,10.87511083984375,-1.2829999923706055,0.3160000145435333,0.1340000033378601
1773343139631863000,10.884863037109374,-0.9670000076293945,0.36399999260902405,0.2770000100135803
1773343139641615000,10.894614990234375,-0.7139999866485596,0.3440000116825104,0.11699999868869781
1773343139651367000,10.904366943359374,-0.3479999899864197,0.4779999852180481,-0.041999999433755875
1773343139661118700,10.91411865234375,-0.04899999871850014,0.5509999990463257,-0.2590000033378601
1773343139670845200,10.92384521484375,0.11599999666213989,0.5870000123977661,-0.5260000228881836
1773343139680609800,10.93360986328125,0.09200000017881393,0.6320000290870667,-0.3889999985694885
1773343139690372900,10.943372802734375,-0.1809999942779541,0.5099999904632568,-0.07800000160932541
1773343139700124200,10.953124267578126,-0.4959999918937683,0.20100000500679016,0.414000004529953
1773343139709848600,10.9628486328125,-0.8629999756813049,-0.12200000137090683,1.0720000267028809
1773343139719729700,10.972729736328125,-0.44200000166893005,-0.12200000137090683,2.2760000228881836
1773343139729376300,10.982376220703125,0.35600000619888306,0.17900000512599945,2.756999969482422
1773343139739126500,10.99212646484375,1.2569999694824219,0.4020000100135803,2.9210000038146973
1773343139748876000,11.0018759765625,2.2829999923706055,0.6069999933242798,2.755000114440918
1773343139758625300,11.011625244140625,3.0169999599456787,0.40799999237060547,2.378999948501587
1773343139768375300,11.021375244140625,3.3510000705718994,0.20499999821186066,1.9220000505447388
1773343139778127600,11.031127685546876,3.1500000953674316,-0.24199999868869781,1.3489999771118164
1773343139787878100,11.040878173828125,2.7860000133514404,-0.48399999737739563,1.319000005722046
1773343139797630000,11.0506298828125,2.437000036239624,-0.49399998784065247,1.3849999904632568
1773343139807381200,11.06038134765625,2.052000045776367,-0.48899999260902405,1.6510000228881836
1773343139817133800,11.0701337890625,1.8329999446868896,-0.34299999475479126,2.184999942779541
1773343139826886700,11.07988671875,1.7999999523162842,-0.19300000369548798,2.5799999237060547
1773343139836639700,11.0896396484375,1.7239999771118164,0.04100000113248825,3.130000114440918
1773343139846392300,11.099392333984374,1.5219999551773071,0.2709999978542328,3.49399995803833
1773343139856145000,11.109144775390625,1.0989999771118164,0.3240000009536743,3.2139999866485596
1773343139865898500,11.1188984375,0.5989999771118164,0.3630000054836273,2.381999969482422
1773343139875651600,11.128651611328126,0.0989999994635582,0.335999995470047,1.5570000410079956
1773343139885261800,11.13826171875,-0.34200000762939453,0.1379999965429306,0.652999997138977
1773343139904421400,11.15742138671875,-1.0019999742507935,-0.2150000035762787,0.18400000035762787
1773343139923440400,11.1764404296875,-1.3350000381469727,-0.5009999871253967,-0.017999999225139618
1773343139933194200,11.1861943359375,-1.340999960899353,-0.4129999876022339,0.032999999821186066
1773343139942946300,11.1959462890625,-1.2280000448226929,-0.2619999945163727,0.0689999982714653
1773343139952698000,11.205697998046874,-1.0219999551773071,-0.10700000077486038,0.20399999618530273
1773343139962450700,11.21545068359375,-0.8849999904632568,-0.05999999865889549,0.3240000009536743
1773343139972201500,11.225201416015626,-0.906000018119812,-0.0820000022649765,0.6510000228881836
1773343139981953000,11.234953125,-0.8629999756813049,-0.07699999958276749,0.8230000138282776
1773343139991703800,11.244703857421875,-0.871999979019165,-0.296999990940094,0.7870000004768372
1773343140001455600,11.25445556640625,-1.024999976158142,-0.4779999852180481,0.6859999895095825
1773343140011208200,11.264208251953125,-1.0950000286102295,-0.6729999780654907,0.335999995470047
1773343140020936000,11.27393603515625,-1.2999999523162842,-0.7049999833106995,-0.04800000041723251
1773343140030719000,11.283718994140624,-1.309999942779541,-0.7390000224113464,-0.28299999237060547
1773343140040469000,11.293468994140625,-1.2450000047683716,-0.7020000219345093,-0.3269999921321869
1773343140050223000,11.30322314453125,-0.9390000104904175,-0.550000011920929,-0.02800000086426735
1773343140059950800,11.312950927734375,-0.5419999957084656,-0.5,0.3569999933242798
1773343140069729000,11.32272900390625,-0.054999999701976776,-0.3050000071525574,0.9169999957084656
1773343140079482000,11.332482177734375,0.5440000295639038,-0.3240000009536743,1.2899999618530273
1773343140089235000,11.34223486328125,0.824999988079071,-0.3720000088214874,1.4329999685287476
1773343140098988000,11.351988037109376,1.0119999647140503,-0.5669999718666077,1.4320000410079956
1773343140108740900,11.361740966796875,1.3630000352859497,-0.5730000138282776,1.1269999742507935
1773343140118493400,11.371493408203126,1.406999945640564,-0.5049999952316284,0.6769999861717224
1773343140128245200,11.381245361328125,1.562999963760376,-0.5400000214576721,0.3269999921321869
1773343140137996800,11.390996826171875,1.5549999475479126,-0.5989999771118164,0.04800000041723251
1773343140147748600,11.40074853515625,1.565000057220459,-0.5709999799728394,0.04399999976158142
1773343140157500400,11.41050048828125,1.6330000162124634,-0.42100000381469727,-0.061000000685453415
1773343140167252500,11.42025244140625,1.4429999589920044,-0.17399999499320984,-0.013000000268220901
1773343140177005000,11.430005126953125,1.350000023841858,0.07800000160932541,0.008999999612569809
1773343140186758000,11.4397578125,1.0980000495910645,0.1340000033378601,0.1979999989271164
1773343140196511700,11.44951171875,0.8479999899864197,0.41600000858306885,0.41200000047683716
1773343140206264300,11.459264404296874,0.7509999871253967,0.46299999952316284,0.6579999923706055
1773343140216018200,11.46901806640625,0.9359999895095825,0.7689999938011169,0.7850000262260437
1773343140225771300,11.478771240234375,1.2710000276565552,0.9350000023841858,0.6970000267028809
1773343140235524900,11.48852490234375,1.5049999952316284,0.597000002861023,0.453000009059906
1773343140245278700,11.49827880859375,1.74399995803833,0.32899999618530273,0.12300000339746475
1773343140255035000,11.508034912109375,1.8029999732971191,0.11900000274181366,-0.4059999883174896
1773343140264789800,11.517789794921875,1.687999963760376,-0.054999999701976776,-1.0240000486373901
1773343140274542600,11.52754248046875,1.3559999465942383,-0.023000000044703484,-1.781999945640564
1773343140284296400,11.53729638671875,1.0449999570846558,0.20900000631809235,-2.2009999752044678
1773343140294049500,11.547049560546874,0.4390000104904175,0.3059999942779541,-2.6549999713897705
1773343140303803000,11.556802978515625,0.10700000077486038,0.6430000066757202,-2.7119998931884766
1773343140313556700,11.566556640625,-0.1420000046491623,0.8709999918937683,-2.746000051498413
1773343140323309300,11.576309326171875,-0.43799999356269836,0.9729999899864197,-2.4210000038146973
1773343140333062100,11.586062255859375,-0.5170000195503235,1.1419999599456787,-2.0329999923706055
1773343140342814000,11.59581396484375,-0.6140000224113464,1.3279999494552612,-1.7130000591278076
1773343140352565500,11.6055654296875,-0.5580000281333923,1.5299999713897705,-1.3869999647140503
1773343140362317000,11.615317138671875,-0.36800000071525574,1.7200000286102295,-1.2029999494552612
1773343140372066600,11.625066650390625,-0.12399999797344208,1.7979999780654907,-0.8849999904632568
1773343140391574500,11.644574462890626,0.3869999945163727,1.4010000228881836,-0.9190000295639038
1773343140401327600,11.65432763671875,0.40799999237060547,1.1380000114440918,-1.156999945640564
1773343140411079200,11.6640791015625,0.0989999994635582,0.8429999947547913,-1.3309999704360962
1773343140420806700,11.673806640625,-0.24400000274181366,0.5450000166893005,-1.5069999694824219
1773343140430572000,11.683572021484375,-0.6309999823570251,0.5910000205039978,-1.6660000085830688
1773343140440336400,11.69333642578125,-1.1670000553131104,0.5730000138282776,-1.7970000505447388
1773343140450087200,11.703087158203125,-1.475000023841858,0.6370000243186951,-1.7350000143051147
1773343140459812400,11.712812255859374,-1.812999963760376,0.6859999895095825,-1.5609999895095825
1773343140469588000,11.722587890625,-1.8830000162124634,0.8529999852180481,-1.1610000133514404
1773343140479338200,11.732338134765625,-1.8569999933242798,0.8820000290870667,-0.9890000224113464
1773343140489088500,11.742088623046875,-1.8739999532699585,0.8610000014305115,-0.6299999952316284
1773343140498838800,11.7518388671875,-1.5809999704360962,0.8410000205039978,-0.36899998784065247
1773343140508588000,11.761588134765624,-1.434000015258789,0.5870000123977661,-0.3109999895095825
1773343140518338300,11.77133837890625,-1.2940000295639038,0.5400000214576721,-0.527999997138977
1773343140528088600,11.781088623046875,-1.3009999990463257,0.47699999809265137,-0.75
1773343140537838800,11.7908388671875,-1.4199999570846558,0.38100001215934753,-0.8259999752044678
1773343140547590100,11.800590087890624,-1.281000018119812,0.38100001215934753,-1.0149999856948853
1773343140566605800,11.819605712890626,-0.781000018119812,0.375,-0.5550000071525574
1773343140576356600,11.829356689453125,-0.4650000035762787,0.21699999272823334,-0.3449999988079071
1773343140586108400,11.8391083984375,-0.15600000321865082,0.13699999451637268,-0.10700000077486038
1773343140595860000,11.84885986328125,-0.16699999570846558,0.02199999988079071,-0.20499999821186066
1773343140605612800,11.85861279296875,-0.4099999964237213,-0.010999999940395355,-0.2980000078678131
1773343140615365000,11.868365234375,-0.4729999899864197,0.006000000052154064,-0.42500001192092896
1773343140625116700,11.87811669921875,-0.5849999785423279,0.11500000208616257,-0.3019999861717224
1773343140634869500,11.887869384765626,-0.7260000109672546,0.08799999952316284,0.017000000923871994
1773343140644621000,11.89762109375,-0.7329999804496765,0.08500000089406967,0.45500001311302185
1773343140654374000,11.907373779296876,-0.26899999380111694,0.13500000536441803,0.9449999928474426
1773343140664126000,11.9171259765625,0.5040000081062317,0.22699999809265137,1.4170000553131104
1773343140673878300,11.926878173828126,1.496999979019165,0.1720000058412552,2.0420000553131104
1773343140683630800,11.936630859375,2.563999891281128,0.11500000208616257,2.3919999599456787
1773343140693383200,11.946383056640625,3.4600000381469727,0.0949999988079071,2.6489999294281006
1773343140712405000,11.965405029296875,4.390999794006348,-0.1860000044107437,2.1579999923706055
1773343140722158600,11.97515869140625,4.38700008392334,-0.41999998688697815,1.6269999742507935
1773343140731912200,11.984912109375,3.6619999408721924,-0.5170000195503235,1.4550000429153442
1773343140741664000,11.9946640625,3.009000062942505,-0.6320000290870667,1.3899999856948853
1773343140751418000,12.004418212890625,2.194000005722046,-0.6600000262260437,1.4910000562667847
1773343140761146000,12.01414599609375,1.4509999752044678,-0.5789999961853027,1.7089999914169312
1773343140770927600,12.023927734375,0.7630000114440918,-0.49799999594688416,1.909000039100647
1773343140780676600,12.033676513671875,0.15299999713897705,-0.3370000123977661,2.0269999504089355
1773343140790417200,12.043417236328125,-0.2980000078678131,-0.08799999952316284,2
1773343140800182800,12.053182861328125,-0.9079999923706055,0.10899999737739563,1.906999945640564
1773343140809935000,12.06293505859375,-1.4630000591278076,0.061000000685453415,1.6740000247955322
1773343140819687000,12.07268701171875,-1.9559999704360962,0.03200000151991844,1.3279999494552612
1773343140829439000,12.08243896484375,-2.4839999675750732,-0.052000001072883606,0.9200000166893005
1773343140839324700,12.09232470703125,-2.865000009536743,-0.0689999982714653,0.38600000739097595
1773343140848942800,12.10194287109375,-3.059999942779541,-0.035999998450279236,0.19599999487400055
1773343140858695000,12.11169482421875,-3.0250000953674316,0.06800000369548798,0.11599999666213989
1773343140868445400,12.121445556640625,-2.740999937057495,0.20499999821186066,0.03799999877810478
1773343140878195200,12.1311953125,-2.380000114440918,0.1979999989271164,0.08699999749660492
1773343140887947800,12.14094775390625,-1.9079999923706055,0.06400000303983688,0.057999998331069946
1773343140897700400,12.150700439453125,-1.5149999856948853,-0.1420000046491623,0.02500000037252903
1773343140907453400,12.160453369140624,-0.9860000014305115,-0.2750000059604645,-0.029999999329447746
1773343140917205200,12.170205322265625,-0.621999979019165,-0.4300000071525574,-0.18299999833106995
1773343140926957300,12.179957275390626,-0.15399999916553497,-0.5770000219345093,-0.15800000727176666
1773343140936710100,12.189710205078125,0.1850000023841858,-0.6690000295639038,-0.10700000077486038
1773343140946462000,12.1994619140625,0.4429999887943268,-0.6549999713897705,0.19599999487400055
1773343140956214300,12.20921435546875,0.6570000052452087,-0.7070000171661377,0.5630000233650208
1773343140965966600,12.218966552734376,0.765999972820282,-0.7369999885559082,0.6819999814033508
1773343140975717000,12.228717041015624,0.875,-0.5659999847412109,0.7369999885559082
1773343140985468700,12.23846875,0.7559999823570251,-0.41999998688697815,0.7250000238418579
1773343140995219500,12.248219482421876,0.6549999713897705,-0.3160000145435333,0.6349999904632568
1773343141004971300,12.25797119140625,0.5630000233650208,-0.10700000077486038,0.8240000009536743
1773343141014721500,12.267721435546875,0.48100000619888306,-0.01899999938905239,1.0299999713897705
1773343141024470500,12.277470458984375,0.5950000286102295,-0.04100000113248825,1.4210000038146973
1773343141034220500,12.287220458984375,0.7710000276565552,-0.23600000143051147,1.5920000076293945
1773343141043971000,12.29697119140625,0.9570000171661377,-0.22100000083446503,1.4709999561309814
1773343141053721600,12.3067216796875,1.1180000305175781,-0.421999990940094,1.0920000076293945
1773343141063472400,12.316472412109375,1.5230000019073486,-0.41999998688697815,0.4650000035762787
1773343141073223400,12.326223388671876,1.5779999494552612,-0.3370000123977661,-0.18799999356269836
1773343141082974200,12.33597412109375,1.6150000095367432,-0.27900001406669617,-0.7730000019073486
1773343141092725200,12.345725341796875,1.7309999465942383,-0.1770000010728836,-0.8220000267028809
1773343141102477600,12.3554775390625,1.6820000410079956,-0.07000000029802322,-0.5860000252723694
1773343141112227800,12.365227783203125,1.5820000171661377,0.07199999690055847,-0.24400000274181366
1773343141121980400,12.37498046875,1.600000023841858,0.3479999899864197,0.17900000512599945
1773343141131732200,12.384732177734374,1.5199999809265137,0.6890000104904175,0.7590000033378601
1773343141141483800,12.39448388671875,1.3509999513626099,0.8379999995231628,1.38100004196167
1773343141160501000,12.4135009765625,1.9179999828338623,1.0889999866485596,2.132999897003174
1773343141170254300,12.42325439453125,2.2300000190734863,0.9269999861717224,2.009999990463257
1773343141180007200,12.433007080078125,2.440999984741211,0.6269999742507935,1.5019999742507935
1773343141189762000,12.442761962890625,2.38700008392334,0.27300000190734863,0.656000018119812
1773343141199518500,12.4525185546875,2.0420000553131104,-0.05000000074505806,-0.2800000011920929
1773343141209273300,12.4622734375,1.406999945640564,-0.38100001215934753,-1.5149999856948853
1773343141219028000,12.472028076171876,0.6850000023841858,-0.628000020980835,-2.3369998931884766
1773343141228780500,12.481780517578125,-0.18299999833106995,-0.6190000176429749,-3.055999994277954
1773343141238533600,12.49153369140625,-0.6959999799728394,-0.4650000035762787,-3.309999942779541
1773343141248286200,12.5012861328125,-1.312000036239624,-0.07400000095367432,-3.2820000648498535
1773343141258038000,12.5110380859375,-1.4229999780654907,0.24500000476837158,-2.872999906539917
1773343141268004900,12.5210048828125,-1.3359999656677246,0.6230000257492065,-2.3440001010894775
1773343141277542400,12.53054248046875,-1.253000020980835,0.9200000166893005,-1.8669999837875366
1773343141287295700,12.540295654296875,-1.0579999685287476,1.2380000352859497,-1.524999976158142
1773343141297048000,12.550048095703126,-1.0210000276565552,1.371000051498413,-1.2640000581741333
1773343141306852000,12.55985205078125,-0.9039999842643738,1.3370000123977661,-1.0049999952316284
1773343141326306800,12.579306884765625,-0.6079999804496765,1.2649999856948853,-1.0880000591278076
1773343141336061400,12.5890615234375,-0.3799999952316284,0.9829999804496765,-1.1119999885559082
1773343141345815000,12.59881494140625,-0.2160000056028366,0.7009999752044678,-1.097000002861023
1773343141355569200,12.608569091796875,-0.024000000208616257,0.2980000078678131,-1.0429999828338623
1773343141365321500,12.618321533203124,0.19699999690055847,0.11999999731779099,-1.2059999704360962
1773343141375073500,12.628073486328125,0.07100000232458115,-0.10000000149011612,-1.25
1773343141384826400,12.637826416015624,-0.06700000166893005,-0.1940000057220459,-1.4470000267028809
1773343141394579500,12.647579345703125,-0.2370000034570694,-0.34700000286102295,-1.6540000438690186
1773343141404332300,12.657332275390624,-0.6840000152587891,-0.36000001430511475,-1.7979999780654907
1773343141414084600,12.667084716796875,-1.1469999551773071,-0.257999986410141,-1.6779999732971191
1773343141423838200,12.676838134765624,-1.6109999418258667,-0.23399999737739563,-1.399999976158142
1773343141433591600,12.686591552734376,-2.005000114440918,-0.07800000160932541,-0.8980000019073486
1773343141443345200,12.69634521484375,-2.187999963760376,0.06800000369548798,-0.593999981880188
1773343141453098500,12.706098388671874,-2.0999999046325684,0.1459999978542328,-0.28999999165534973
1773343141462852600,12.7158525390625,-1.809000015258789,0.3009999990463257,-0.017999999225139618
1773343141472606700,12.725606689453125,-1.6100000143051147,0.41200000047683716,0.09600000083446503
1773343141482360300,12.7353603515625,-1.2029999494552612,0.6700000166893005,0.2680000066757202
1773343141492114000,12.745114013671875,-0.8489999771118164,0.7450000047683716,0.16200000047683716
1773343141501868000,12.754867919921875,-0.48399999737739563,0.640999972820282,0.12700000405311584
1773343141511620400,12.764620361328125,-0.1809999942779541,0.5379999876022339,0.0820000022649765
1773343141521373200,12.774373291015625,0.2770000100135803,0.5019999742507935,-0.014999999664723873
1773343141531125500,12.78412548828125,0.6970000267028809,0.41999998688697815,-0.13699999451637268
1773343141540852700,12.793852783203125,0.8209999799728394,0.4230000078678131,-0.10400000214576721
1773343141550616600,12.803616455078124,0.8339999914169312,0.44699999690055847,0.19099999964237213
1773343141560382500,12.813382568359375,0.6510000228881836,0.5730000138282776,0.5419999957084656
1773343141570137900,12.823137939453124,0.35899999737739563,0.5590000152587891,0.8100000023841858
1773343141579865300,12.832865234375,0.11599999666213989,0.47200000286102295,1.1469999551773071
1773343141589644300,12.842644287109374,0.03500000014901161,0.3919999897480011,1.3250000476837158
1773343141599396900,12.85239697265625,0.36399999260902405,0.07599999755620956,1.7660000324249268
1773343141609150000,12.86214990234375,1.1380000114440918,-0.05400000140070915,2.2790000438690186
1773343141618902000,12.871902099609375,2.122999906539917,0.009999999776482582,2.752000093460083
1773343141628653600,12.881653564453124,3,-0.10400000214576721,2.757999897003174
